Folder: Master-Thesis/XRD/XRD/17-11-2025 Crystal Plates/XY Data (part 2)

File: STO_Si_Substrate_Raw.xy
20.00000 931.044
20.17000 936.362
20.34000 931.587
20.51000 939.667
20.68000 925.680
20.85000 910.040
21.02000 889.008
21.19000 889.343
21.36000 908.179
21.53000 886.783
21.70000 889.076
21.87000 904.605
22.04000 881.952
22.21000 879.969
22.38000 892.819
22.55000 853.043
22.72000 896.829
22.89000 841.902
23.06000 836.428
23.23000 845.528
23.40000 847.600
23.57000 835.718
23.74000 839.356
23.91000 806.440
24.08000 805.320
24.25000 780.038
24.42000 759.199
24.59000 746.802
24.76000 753.694
24.93000 738.851
25.10000 723.800
25.27000 737.793
25.44000 715.891
25.61000 697.844
25.78000 699.447
25.95000 684.162
26.12000 660.668
26.29000 645.128
26.46000 675.122
26.63000 656.183
26.80000 645.004
26.97000 658.693
27.14000 638.648
27.31000 626.152
27.48000 592.154
27.65000 631.264
27.82000 611.744
27.99000 606.748
28.16000 602.558
28.33000 585.032
28.50000 567.665
28.67000 577.810
28.84000 575.635
29.01000 573.650
29.18000 582.159
29.35000 555.238
29.52000 512.700
29.69000 552.865
29.86000 540.157
30.03000 524.415
30.20000 530.653
30.37000 530.335
30.54000 516.547
30.71000 515.207
30.88000 500.692
31.05000 516.512
31.22000 513.417
31.39000 513.939
31.56000 493.830
31.73000 499.524
31.90000 480.326
32.07000 499.539
32.24000 492.760
32.41000 481.171
32.58000 468.085
32.75000 470.633
32.92000 443.610
33.09000 444.138
33.26000 458.346
33.43000 476.547
33.60000 460.698
33.77000 446.272
33.94000 426.827
34.11000 436.768
34.28000 453.611
34.45000 421.501
34.62000 458.119
34.79000 432.286
34.96000 426.503
35.13000 420.604
35.30000 436.531
35.47000 423.881
35.64000 420.937
35.81000 429.941
35.98000 398.629
36.15000 415.146
36.32000 414.479
36.49000 379.262
36.66000 395.282
36.83000 393.040
37.00000 390.010
37.17000 389.378
37.34000 406.874
37.51000 366.439
37.68000 389.169
37.85000 374.243
38.02000 388.822
38.19000 374.779
38.36000 373.715
38.53000 364.008
38.70000 383.257
38.87000 375.357
39.04000 346.188
39.21000 349.778
39.38000 383.695
39.55000 354.768
39.72000 347.450
39.89000 375.421
40.06000 351.822
40.23000 350.986
40.40000 314.795
40.57000 350.423
40.74000 345.432
40.91000 343.142
41.08000 329.355
41.25000 334.076
41.42000 329.232
41.59000 328.080
41.76000 318.065
41.93000 313.353
42.10000 309.436
42.27000 326.798
42.44000 326.537
42.61000 321.625
42.78000 309.173
42.95000 315.425
43.12000 302.137
43.29000 296.096
43.46000 300.382
43.63000 298.467
43.80000 309.204
43.97000 295.039
44.14000 290.450
44.31000 298.412
44.48000 303.427
44.65000 295.222
44.82000 301.224
44.99000 311.120
45.16000 313.326
45.33000 333.517
45.50000 336.809
45.67000 349.000
45.84000 353.646
46.01000 357.368
46.18000 362.355
46.35000 356.890
46.52000 355.274
46.69000 384.378
46.86000 372.999
47.03000 378.337
47.20000 363.052
47.37000 360.557
47.54000 337.716
47.71000 331.151
47.88000 308.010
48.05000 299.436
48.22000 300.230
48.39000 291.221
48.56000 266.068
48.73000 253.761
48.90000 244.437
49.07000 250.653
49.24000 248.771
49.41000 243.874
49.58000 238.901
49.75000 232.077
49.92000 234.069
50.09000 230.216
50.26000 233.220
50.43000 225.517
50.60000 227.566
50.77000 224.758
50.94000 227.136
51.11000 218.198
51.28000 218.004
51.45000 229.798
51.62000 232.642
51.79000 214.432
51.96000 231.125
52.13000 213.314
52.30000 218.704
52.47000 214.264
52.64000 207.090
52.81000 208.935
52.98000 210.832
53.15000 221.942
53.32000 215.077
53.49000 210.731
53.66000 206.693
53.83000 209.043
54.00000 195.967
54.17000 190.725
54.34000 203.747
54.51000 208.218
54.68000 192.125
54.85000 203.458
55.02000 195.866
55.19000 194.686
55.36000 185.634
55.53000 190.561
55.70000 195.656
55.87000 188.019
56.04000 206.348
56.21000 194.360
56.38000 199.704
56.55000 188.611
56.72000 190.606
56.89000 182.654
57.06000 188.311
57.23000 179.479
57.40000 181.618
57.57000 184.812
57.74000 185.688
57.91000 180.800
58.08000 179.900
58.25000 175.074
58.42000 168.932
58.59000 165.994
58.76000 176.710
58.93000 174.505
59.10000 176.828
59.27000 176.880
59.44000 170.733
59.61000 179.308
59.78000 173.985
59.95000 175.737
60.12000 169.441
60.29000 175.748
60.46000 179.173
60.63000 172.841
60.80000 194.276
60.97000 179.612
61.14000 179.445
61.31000 173.575
61.48000 182.146
61.65000 210.480
61.82000 321.525
61.99000 204.123
62.16000 186.610
62.33000 179.578
62.50000 192.258
62.67000 183.048
62.84000 177.287
63.01000 186.649
63.18000 196.633
63.35000 188.521
63.52000 192.888
63.69000 187.593
63.86000 200.027
64.03000 205.483
64.20000 194.258
64.37000 197.794
64.54000 211.292
64.71000 216.362
64.88000 217.864
65.05000 226.355
65.22000 233.706
65.39000 262.095
65.56000 262.010
65.73000 331.054
65.90000 918.527
66.07000 941.269
66.24000 355.760
66.41000 417.574
66.58000 504.972
66.75000 383.755
66.92000 391.886
67.09000 417.306
67.26000 450.158
67.43000 477.216
67.60000 499.925
67.77000 565.456
67.94000 597.559
68.11000 658.723
68.28000 725.753
68.45000 817.407
68.62000 977.114
68.79000 1548.611
68.96000 2646.705
69.13000 46674.387
69.30000 68938.477
69.47000 31963.855
69.64000 2876.417
69.81000 1322.456
69.98000 988.706
70.00000 965.360