Folder: Master-Thesis/XRD/XRD/17-11-2025 Crystal Plates/XY Data

File: Deposition_9-2.xy
20.00000 725.932
20.17000 730.755
20.34000 720.589
20.51000 771.510
20.68000 746.353
20.85000 731.948
21.02000 825.206
21.19000 896.375
21.36000 870.107
21.53000 1102.236
21.70000 2095.470
21.87000 7244.618
22.04000 9997.623
22.21000 3752.910
22.38000 1631.760
22.55000 1917.454
22.72000 32340.332
22.89000 16843.014
23.06000 1049.898
23.23000 835.325
23.40000 731.346
23.57000 682.344
23.74000 684.877
23.91000 701.250
24.08000 688.396
24.25000 645.010
24.42000 603.454
24.59000 601.748
24.76000 602.340
24.93000 618.886
25.10000 591.420
25.27000 580.218
25.44000 576.238
25.61000 572.378
25.78000 578.608
25.95000 558.763
26.12000 583.580
26.29000 557.969
26.46000 572.998
26.63000 538.720
26.80000 535.132
26.97000 553.157
27.14000 528.268
27.31000 540.181
27.48000 531.151
27.65000 531.142
27.82000 508.873
27.99000 531.066
28.16000 503.932
28.33000 506.511
28.50000 502.822
28.67000 486.636
28.84000 504.141
29.01000 491.565
29.18000 466.495
29.35000 486.422
29.52000 475.257
29.69000 494.706
29.86000 493.910
30.03000 480.467
30.20000 475.574
30.37000 487.528
30.54000 472.423
30.71000 473.042
30.88000 480.838
31.05000 492.944
31.22000 603.897
31.39000 678.184
31.56000 562.343
31.73000 465.578
31.90000 451.156
32.07000 432.187
32.24000 492.321
32.41000 569.332
32.58000 411.279
32.75000 423.954
32.92000 420.743
33.09000 423.488
33.26000 433.674
33.43000 423.626
33.60000 412.466
33.77000 419.003
33.94000 406.888
34.11000 426.533
34.28000 424.291
34.45000 417.685
34.62000 409.518
34.79000 393.593
34.96000 396.854
35.13000 378.127
35.30000 384.778
35.47000 383.627
35.64000 376.902
35.81000 360.748
35.98000 380.642
36.15000 368.257
36.32000 359.441
36.49000 366.552
36.66000 352.131
36.83000 343.172
37.00000 355.834
37.17000 361.269
37.34000 355.527
37.51000 324.156
37.68000 343.256
37.85000 338.068
38.02000 348.471
38.19000 345.663
38.36000 384.957
38.53000 387.916
38.70000 423.615
38.87000 384.008
39.04000 342.301
39.21000 334.196
39.38000 330.597
39.55000 333.809
39.72000 335.078
39.89000 342.416
40.06000 339.131
40.23000 342.496
40.40000 342.559
40.57000 355.391
40.74000 321.156
40.91000 334.187
41.08000 318.126
41.25000 335.142
41.42000 348.548
41.59000 398.234
41.76000 845.363
41.93000 504.414
42.10000 388.830
42.27000 395.785
42.44000 432.021
42.61000 500.246
42.78000 569.240
42.95000 596.446
43.12000 591.810
43.29000 578.998
43.46000 625.098
43.63000 702.716
43.80000 819.875
43.97000 1015.087
44.14000 1406.007
44.31000 3558.891
44.48000 6921.269
44.65000 9755.434
44.82000 14678.707
44.99000 12042.801
45.16000 6697.877
45.33000 3494.691
45.50000 2445.755
45.67000 2206.765
45.84000 2246.017
46.01000 2690.738
46.18000 6037.037
46.35000 123638.211
46.52000 293595.375
46.69000 76523.492
46.86000 4317.359
47.03000 2506.932
47.20000 1820.342
47.37000 1385.898
47.54000 1119.126
47.71000 921.805
47.88000 725.853
48.05000 627.548
48.22000 543.037
48.39000 484.826
48.56000 458.802
48.73000 407.867
48.90000 386.177
49.07000 364.075
49.24000 318.529
49.41000 329.004
49.58000 321.717
49.75000 282.527
49.92000 295.246
50.09000 273.221
50.26000 280.471
50.43000 273.145
50.60000 273.323
50.77000 295.340
50.94000 288.366
51.11000 242.660
51.28000 250.060
51.45000 234.755
51.62000 233.250
51.79000 241.526
51.96000 226.912
52.13000 223.552
52.30000 206.984
52.47000 212.909
52.64000 210.481
52.81000 207.096
52.98000 234.327
53.15000 232.934
53.32000 234.088
53.49000 231.521
53.66000 206.403
53.83000 230.515
54.00000 215.840
54.17000 222.696
54.34000 212.395
54.51000 202.893
54.68000 197.869
54.85000 201.799
55.02000 218.012
55.19000 252.781
55.36000 270.316
55.53000 452.126
55.70000 1007.398
55.87000 1743.436
56.04000 1476.269
56.21000 778.461
56.38000 372.645
56.55000 246.296
56.72000 234.796
56.89000 211.806
57.06000 204.703
57.23000 178.589
57.40000 176.255
57.57000 179.957
57.74000 174.495
57.91000 165.049
58.08000 160.030
58.25000 171.177
58.42000 176.337
58.59000 169.889
58.76000 164.855
58.93000 160.821
59.10000 169.267
59.27000 159.182
59.44000 162.953
59.61000 162.941
59.78000 158.888
59.95000 153.764
60.12000 159.127
60.29000 153.255
60.46000 153.988
60.63000 155.338
60.80000 163.701
60.97000 147.582
61.14000 166.679
61.31000 151.182
61.48000 148.007
61.65000 152.124
61.82000 144.545
61.99000 146.706
62.16000 151.159
62.33000 142.419
62.50000 142.623
62.67000 146.898
62.84000 140.659
63.01000 137.924
63.18000 137.734
63.35000 139.707
63.52000 141.845
63.69000 134.710
63.86000 147.427
64.03000 140.103
64.20000 125.473
64.37000 149.784
64.54000 152.121
64.71000 159.760
64.88000 132.563
65.05000 136.630
65.22000 143.571
65.39000 148.958
65.56000 151.729
65.73000 145.883
65.90000 130.954
66.07000 140.016
66.24000 134.536
66.41000 141.391
66.58000 133.072
66.75000 133.186
66.92000 139.232
67.09000 131.967
67.26000 132.816
67.43000 132.177
67.60000 142.473
67.77000 132.953
67.94000 137.482
68.11000 139.753
68.28000 135.709
68.45000 141.659
68.62000 159.628
68.79000 169.702
68.96000 226.332
69.13000 286.145
69.30000 247.539
69.47000 329.474
69.64000 436.553
69.81000 554.224
69.98000 622.271
70.00000 627.025

File: Deposition_9-3.xy
20.00000 698.569
20.17000 708.811
20.34000 702.633
20.51000 783.907
20.68000 747.861
20.85000 715.798
21.02000 716.504
21.19000 734.111
21.36000 744.737
21.53000 784.551
21.70000 1062.181
21.87000 1488.251
22.04000 1208.086
22.21000 1042.637
22.38000 1087.033
22.55000 1671.346
22.72000 38462.762
22.89000 24279.008
23.06000 1102.085
23.23000 847.856
23.40000 748.780
23.57000 700.538
23.74000 691.976
23.91000 721.904
24.08000 694.223
24.25000 658.816
24.42000 637.365
24.59000 618.199
24.76000 634.303
24.93000 615.012
25.10000 582.545
25.27000 592.721
25.44000 573.386
25.61000 561.474
25.78000 586.663
25.95000 554.715
26.12000 576.309
26.29000 568.135
26.46000 553.140
26.63000 542.679
26.80000 572.040
26.97000 567.545
27.14000 532.736
27.31000 537.508
27.48000 552.944
27.65000 542.941
27.82000 551.336
27.99000 519.593
28.16000 546.230
28.33000 538.452
28.50000 544.026
28.67000 551.273
28.84000 565.799
29.01000 538.357
29.18000 539.177
29.35000 519.465
29.52000 519.420
29.69000 530.848
29.86000 527.914
30.03000 510.149
30.20000 518.900
30.37000 505.817
30.54000 524.699
30.71000 535.712
30.88000 600.403
31.05000 797.335
31.22000 1147.714
31.39000 1261.406
31.56000 882.906
31.73000 614.945
31.90000 536.097
32.07000 513.111
32.24000 479.669
32.41000 449.591
32.58000 434.671
32.75000 453.889
32.92000 446.241
33.09000 412.626
33.26000 412.326
33.43000 432.988
33.60000 422.840
33.77000 422.219
33.94000 423.780
34.11000 440.700
34.28000 412.463
34.45000 393.156
34.62000 434.226
34.79000 399.401
34.96000 410.800
35.13000 378.923
35.30000 389.426
35.47000 417.944
35.64000 386.078
35.81000 371.813
35.98000 407.439
36.15000 396.993
36.32000 372.053
36.49000 385.131
36.66000 372.125
36.83000 387.631
37.00000 357.055
37.17000 367.062
37.34000 368.514
37.51000 368.455
37.68000 353.039
37.85000 389.049
38.02000 358.672
38.19000 389.296
38.36000 434.332
38.53000 510.982
38.70000 603.897
38.87000 491.749
39.04000 398.157
39.21000 362.860
39.38000 348.661
39.55000 357.430
39.72000 344.201
39.89000 340.693
40.06000 347.158
40.23000 325.733
40.40000 347.911
40.57000 342.293
40.74000 336.414
40.91000 343.217
41.08000 344.503
41.25000 339.291
41.42000 369.287
41.59000 396.692
41.76000 856.799
41.93000 568.432
42.10000 397.943
42.27000 415.289
42.44000 389.464
42.61000 400.000
42.78000 395.706
42.95000 400.910
43.12000 430.225
43.29000 428.684
43.46000 457.733
43.63000 445.065
43.80000 514.878
43.97000 567.689
44.14000 658.236
44.31000 2062.890
44.48000 4094.224
44.65000 1538.758
44.82000 1858.093
44.99000 1356.782
45.16000 1329.245
45.33000 1387.950
45.50000 1449.694
45.67000 1696.323
45.84000 2010.939
46.01000 2610.948
46.18000 6076.999
46.35000 112563.359
46.52000 330389.938
46.69000 93830.211
46.86000 4886.492
47.03000 2687.262
47.20000 1987.117
47.37000 1539.433
47.54000 1200.340
47.71000 960.509
47.88000 813.384
48.05000 649.047
48.22000 561.141
48.39000 499.151
48.56000 448.594
48.73000 426.215
48.90000 390.056
49.07000 361.514
49.24000 354.012
49.41000 345.478
49.58000 332.527
49.75000 310.530
49.92000 290.168
50.09000 299.705
50.26000 298.882
50.43000 310.277
50.60000 308.961
50.77000 300.760
50.94000 316.009
51.11000 282.459
51.28000 264.432
51.45000 242.628
51.62000 246.730
51.79000 237.206
51.96000 217.199
52.13000 229.704
52.30000 222.921
52.47000 222.377
52.64000 203.465
52.81000 215.052
52.98000 222.394
53.15000 212.754
53.32000 224.675
53.49000 228.213
53.66000 212.126
53.83000 209.196
54.00000 198.358
54.17000 198.882
54.34000 193.729
54.51000 200.602
54.68000 201.548
54.85000 192.976
55.02000 215.727
55.19000 225.997
55.36000 229.397
55.53000 258.113
55.70000 311.316
55.87000 350.788
56.04000 305.046
56.21000 261.704
56.38000 220.983
56.55000 204.463
56.72000 192.110
56.89000 184.918
57.06000 179.493
57.23000 182.264
57.40000 184.160
57.57000 177.620
57.74000 175.564
57.91000 178.066
58.08000 165.063
58.25000 161.889
58.42000 166.993
58.59000 161.598
58.76000 165.189
58.93000 162.920
59.10000 158.227
59.27000 155.262
59.44000 158.688
59.61000 147.995
59.78000 150.876
59.95000 145.860
60.12000 162.763
60.29000 154.735
60.46000 148.836
60.63000 142.470
60.80000 158.983
60.97000 154.765
61.14000 152.693
61.31000 148.462
61.48000 149.088
61.65000 160.850
61.82000 151.514
61.99000 148.011
62.16000 140.554
62.33000 145.965
62.50000 146.266
62.67000 148.974
62.84000 137.644
63.01000 151.326
63.18000 143.684
63.35000 136.038
63.52000 142.516
63.69000 139.852
63.86000 152.819
64.03000 144.755
64.20000 149.543
64.37000 144.938
64.54000 153.305
64.71000 168.105
64.88000 158.596
65.05000 166.311
65.22000 164.910
65.39000 183.311
65.56000 186.144
65.73000 169.826
65.90000 158.413
66.07000 145.937
66.24000 140.582
66.41000 132.511
66.58000 141.596
66.75000 137.085
66.92000 142.427
67.09000 137.818
67.26000 135.565
67.43000 135.805
67.60000 120.150
67.77000 127.098
67.94000 133.192
68.11000 127.488
68.28000 137.173
68.45000 138.017
68.62000 143.615
68.79000 146.054
68.96000 191.199
69.13000 262.172
69.30000 162.450
69.47000 157.636
69.64000 177.834
69.81000 183.092
69.98000 169.558
70.00000 173.916

File: Deposition_11-2.xy
20.00000 703.611
20.17000 738.175
20.34000 734.473
20.51000 807.591
20.68000 829.337
20.85000 1204.927
21.02000 1138.835
21.19000 1090.870
21.36000 1456.736
21.53000 3228.761
21.70000 27019.678
21.87000 40962.973
22.04000 3848.725
22.21000 1520.977
22.38000 1240.313
22.55000 2149.142
22.72000 43927.145
22.89000 22277.361
23.06000 1116.584
23.23000 888.529
23.40000 748.668
23.57000 692.935
23.74000 678.631
23.91000 627.229
24.08000 624.938
24.25000 634.562
24.42000 622.565
24.59000 618.867
24.76000 593.214
24.93000 590.915
25.10000 580.274
25.27000 571.031
25.44000 569.974
25.61000 575.933
25.78000 559.895
25.95000 567.676
26.12000 578.529
26.29000 564.124
26.46000 534.555
26.63000 549.249
26.80000 556.118
26.97000 523.859
27.14000 519.277
27.31000 516.191
27.48000 518.380
27.65000 512.081
27.82000 515.697
27.99000 487.106
28.16000 502.287
28.33000 504.072
28.50000 496.495
28.67000 506.455
28.84000 497.001
29.01000 486.367
29.18000 461.204
29.35000 483.049
29.52000 473.163
29.69000 467.625
29.86000 474.591
30.03000 461.038
30.20000 452.391
30.37000 469.939
30.54000 466.321
30.71000 452.587
30.88000 485.737
31.05000 454.045
31.22000 435.134
31.39000 433.372
31.56000 434.996
31.73000 451.517
31.90000 418.846
32.07000 427.343
32.24000 439.553
32.41000 440.102
32.58000 411.290
32.75000 406.311
32.92000 397.062
33.09000 391.325
33.26000 405.485
33.43000 414.123
33.60000 396.789
33.77000 411.904
33.94000 385.220
34.11000 404.337
34.28000 376.733
34.45000 387.186
34.62000 396.858
34.79000 390.342
34.96000 386.262
35.13000 383.251
35.30000 378.844
35.47000 377.194
35.64000 369.371
35.81000 367.700
35.98000 392.832
36.15000 366.662
36.32000 366.640
36.49000 358.430
36.66000 352.332
36.83000 351.248
37.00000 352.961
37.17000 355.647
37.34000 348.446
37.51000 350.604
37.68000 361.148
37.85000 344.341
38.02000 358.178
38.19000 341.038
38.36000 362.917
38.53000 342.866
38.70000 340.509
38.87000 351.064
39.04000 338.157
39.21000 340.383
39.38000 353.121
39.55000 333.025
39.72000 371.777
39.89000 440.636
40.06000 438.889
40.23000 369.764
40.40000 330.095
40.57000 357.502
40.74000 354.577
40.91000 367.438
41.08000 366.674
41.25000 393.304
41.42000 404.614
41.59000 453.330
41.76000 951.216
41.93000 618.157
42.10000 530.050
42.27000 659.903
42.44000 1112.666
42.61000 1094.174
42.78000 795.385
42.95000 799.255
43.12000 785.514
43.29000 938.079
43.46000 1155.503
43.63000 1535.445
43.80000 2241.578
43.97000 4138.712
44.14000 9946.505
44.31000 33994.969
44.48000 72012.336
44.65000 29146.965
44.82000 5330.874
44.99000 2445.128
45.16000 1967.036
45.33000 1903.346
45.50000 1976.653
45.67000 2081.999
45.84000 2372.216
46.01000 3027.721
46.18000 7031.066
46.35000 146172.875
46.52000 341193.250
46.69000 90463.672
46.86000 5048.629
47.03000 2881.676
47.20000 2161.282
47.37000 1616.230
47.54000 1307.280
47.71000 1054.144
47.88000 853.983
48.05000 705.161
48.22000 620.447
48.39000 553.337
48.56000 487.361
48.73000 454.670
48.90000 417.474
49.07000 396.619
49.24000 367.404
49.41000 345.447
49.58000 323.680
49.75000 321.390
49.92000 327.900
50.09000 294.098
50.26000 284.279
50.43000 292.334
50.60000 270.797
50.77000 292.749
50.94000 285.963
51.11000 258.821
51.28000 259.402
51.45000 243.545
51.62000 239.947
51.79000 235.715
51.96000 225.339
52.13000 218.748
52.30000 207.932
52.47000 217.721
52.64000 218.060
52.81000 215.396
52.98000 204.215
53.15000 204.248
53.32000 200.391
53.49000 201.896
53.66000 197.775
53.83000 206.857
54.00000 206.405
54.17000 194.879
54.34000 183.992
54.51000 190.086
54.68000 180.135
54.85000 175.913
55.02000 172.608
55.19000 183.062
55.36000 184.793
55.53000 175.267
55.70000 177.020
55.87000 170.754
56.04000 180.863
56.21000 181.866
56.38000 176.885
56.55000 178.866
56.72000 171.274
56.89000 181.200
57.06000 164.905
57.23000 172.254
57.40000 161.488
57.57000 157.137
57.74000 173.163
57.91000 158.337
58.08000 158.230
58.25000 154.383
58.42000 159.493
58.59000 157.933
58.76000 157.762
58.93000 154.317
59.10000 160.901
59.27000 162.155
59.44000 147.473
59.61000 156.152
59.78000 142.486
59.95000 155.671
60.12000 154.942
60.29000 155.896
60.46000 151.323
60.63000 147.198
60.80000 155.285
60.97000 140.357
61.14000 156.966
61.31000 150.947
61.48000 140.880
61.65000 147.534
61.82000 148.510
61.99000 145.595
62.16000 145.729
62.33000 136.470
62.50000 142.427
62.67000 153.572
62.84000 143.201
63.01000 144.899
63.18000 141.475
63.35000 147.437
63.52000 137.287
63.69000 136.684
63.86000 133.535
64.03000 135.474
64.20000 126.187
64.37000 136.653
64.54000 150.268
64.71000 156.281
64.88000 138.149
65.05000 143.370
65.22000 135.186
65.39000 140.802
65.56000 147.265
65.73000 148.513
65.90000 158.116
66.07000 134.202
66.24000 129.512
66.41000 139.186
66.58000 133.674
66.75000 135.316
66.92000 144.616
67.09000 135.733
67.26000 152.613
67.43000 132.332
67.60000 150.589
67.77000 136.561
67.94000 162.012
68.11000 164.766
68.28000 179.657
68.45000 215.813
68.62000 281.796
68.79000 417.111
68.96000 785.461
69.13000 1490.128
69.30000 1085.783
69.47000 531.843
69.64000 260.760
69.81000 191.199
69.98000 169.021
70.00000 171.448

File: Deposition_11-3.xy
20.00000 718.414
20.17000 705.092
20.34000 747.190
20.51000 800.105
20.68000 797.076
20.85000 849.083
21.02000 974.235
21.19000 1027.132
21.36000 1233.674
21.53000 1777.665
21.70000 4893.252
21.87000 14691.671
22.04000 14950.715
22.21000 4929.967
22.38000 1930.622
22.55000 2594.249
22.72000 48052.449
22.89000 23578.137
23.06000 1186.653
23.23000 902.047
23.40000 783.261
23.57000 704.274
23.74000 687.883
23.91000 627.845
24.08000 618.256
24.25000 626.203
24.42000 604.170
24.59000 589.570
24.76000 575.666
24.93000 589.059
25.10000 590.228
25.27000 583.019
25.44000 554.007
25.61000 554.709
25.78000 560.456
25.95000 560.107
26.12000 533.605
26.29000 558.347
26.46000 530.884
26.63000 542.194
26.80000 537.891
26.97000 514.587
27.14000 535.160
27.31000 528.345
27.48000 523.672
27.65000 513.175
27.82000 525.366
27.99000 508.996
28.16000 529.230
28.33000 508.140
28.50000 507.783
28.67000 486.232
28.84000 483.642
29.01000 494.049
29.18000 474.530
29.35000 512.573
29.52000 471.572
29.69000 470.799
29.86000 488.310
30.03000 462.732
30.20000 461.997
30.37000 447.157
30.54000 465.175
30.71000 460.423
30.88000 441.239
31.05000 442.543
31.22000 441.512
31.39000 437.386
31.56000 436.336
31.73000 436.444
31.90000 450.704
32.07000 417.086
32.24000 419.001
32.41000 416.159
32.58000 438.388
32.75000 405.575
32.92000 412.051
33.09000 420.637
33.26000 394.850
33.43000 407.391
33.60000 393.326
33.77000 389.284
33.94000 384.335
34.11000 375.842
34.28000 395.157
34.45000 377.626
34.62000 397.483
34.79000 380.444
34.96000 377.808
35.13000 371.832
35.30000 361.216
35.47000 366.113
35.64000 360.029
35.81000 361.962
35.98000 376.517
36.15000 363.901
36.32000 369.926
36.49000 353.555
36.66000 361.733
36.83000 347.885
37.00000 351.807
37.17000 341.951
37.34000 340.520
37.51000 332.514
37.68000 352.200
37.85000 350.427
38.02000 339.400
38.19000 331.261
38.36000 346.214
38.53000 340.294
38.70000 327.524
38.87000 332.981
39.04000 321.493
39.21000 346.738
39.38000 332.147
39.55000 332.735
39.72000 326.843
39.89000 342.412
40.06000 351.727
40.23000 342.590
40.40000 339.160
40.57000 333.741
40.74000 336.246
40.91000 335.178
41.08000 336.066
41.25000 351.390
41.42000 373.277
41.59000 423.348
41.76000 952.641
41.93000 514.490
42.10000 413.017
42.27000 437.500
42.44000 499.472
42.61000 584.109
42.78000 626.834
42.95000 711.232
43.12000 699.770
43.29000 753.134
43.46000 843.925
43.63000 1063.368
43.80000 1305.499
43.97000 1738.286
44.14000 2755.925
44.31000 6605.290
44.48000 12285.380
44.65000 15051.811
44.82000 18532.855
44.99000 14610.561
45.16000 7742.888
45.33000 3922.684
45.50000 2636.193
45.67000 2376.754
45.84000 2507.497
46.01000 3182.028
46.18000 7170.478
46.35000 153454.688
46.52000 351103.688
46.69000 89476.086
46.86000 5049.416
47.03000 2897.698
47.20000 2146.520
47.37000 1629.716
47.54000 1299.030
47.71000 1044.803
47.88000 847.691
48.05000 707.512
48.22000 608.137
48.39000 528.592
48.56000 479.174
48.73000 420.154
48.90000 407.520
49.07000 384.111
49.24000 360.506
49.41000 344.545
49.58000 336.117
49.75000 323.610
49.92000 301.917
50.09000 282.900
50.26000 287.688
50.43000 265.591
50.60000 266.979
50.77000 275.722
50.94000 287.935
51.11000 261.507
51.28000 249.684
51.45000 228.342
51.62000 228.726
51.79000 220.020
51.96000 220.233
52.13000 217.399
52.30000 228.519
52.47000 219.476
52.64000 228.697
52.81000 205.889
52.98000 214.988
53.15000 198.566
53.32000 209.003
53.49000 218.610
53.66000 192.577
53.83000 197.471
54.00000 201.283
54.17000 189.408
54.34000 194.534
54.51000 177.468
54.68000 181.511
54.85000 189.476
55.02000 197.062
55.19000 189.594
55.36000 186.732
55.53000 192.192
55.70000 225.788
55.87000 235.941
56.04000 238.260
56.21000 200.467
56.38000 191.611
56.55000 174.683
56.72000 173.524
56.89000 180.220
57.06000 164.562
57.23000 170.204
57.40000 160.895
57.57000 160.624
57.74000 162.017
57.91000 163.499
58.08000 166.438
58.25000 164.253
58.42000 161.275
58.59000 161.576
58.76000 153.143
58.93000 149.455
59.10000 157.514
59.27000 154.765
59.44000 155.636
59.61000 147.162
59.78000 158.044
59.95000 142.848
60.12000 155.575
60.29000 152.549
60.46000 140.542
60.63000 153.074
60.80000 134.402
60.97000 141.593
61.14000 147.794
61.31000 151.900
61.48000 143.564
61.65000 150.367
61.82000 143.092
61.99000 134.792
62.16000 148.109
62.33000 137.118
62.50000 138.422
62.67000 137.556
62.84000 142.479
63.01000 142.813
63.18000 133.051
63.35000 131.540
63.52000 132.932
63.69000 136.966
63.86000 134.035
64.03000 144.270
64.20000 128.494
64.37000 132.212
64.54000 158.376
64.71000 154.584
64.88000 144.772
65.05000 136.910
65.22000 132.204
65.39000 132.191
65.56000 140.000
65.73000 136.834
65.90000 124.468
66.07000 136.534
66.24000 133.179
66.41000 126.033
66.58000 135.024
66.75000 129.836
66.92000 138.636
67.09000 137.260
67.26000 135.306
67.43000 141.396
67.60000 147.203
67.77000 134.304
67.94000 135.808
68.11000 145.689
68.28000 145.039
68.45000 162.796
68.62000 164.207
68.79000 181.528
68.96000 251.572
69.13000 353.693
69.30000 321.504
69.47000 372.905
69.64000 424.337
69.81000 469.947
69.98000 435.685
70.00000 427.130

File: STO_Crystal_Raw.xy
20.00000 674.534
20.17000 678.786
20.34000 667.761
20.51000 749.101
20.68000 684.927
20.85000 675.421
21.02000 666.777
21.19000 687.490
21.36000 676.286
21.53000 665.944
21.70000 976.164
21.87000 1279.014
22.04000 886.307
22.21000 868.843
22.38000 963.575
22.55000 2017.256
22.72000 53447.984
22.89000 30765.939
23.06000 1228.253
23.23000 895.979
23.40000 740.234
23.57000 684.318
23.74000 648.498
23.91000 628.197
24.08000 612.890
24.25000 573.965
24.42000 615.072
24.59000 582.576
24.76000 596.105
24.93000 582.449
25.10000 558.151
25.27000 544.864
25.44000 560.640
25.61000 554.165
25.78000 552.596
25.95000 551.651
26.12000 528.912
26.29000 564.790
26.46000 535.565
26.63000 525.933
26.80000 515.450
26.97000 530.472
27.14000 508.679
27.31000 529.473
27.48000 511.911
27.65000 504.220
27.82000 509.771
27.99000 525.185
28.16000 487.655
28.33000 497.892
28.50000 494.950
28.67000 496.650
28.84000 481.333
29.01000 474.977
29.18000 494.060
29.35000 475.306
29.52000 461.440
29.69000 453.276
29.86000 468.661
30.03000 454.307
30.20000 450.660
30.37000 445.861
30.54000 456.429
30.71000 453.141
30.88000 443.777
31.05000 444.009
31.22000 440.354
31.39000 425.446
31.56000 433.483
31.73000 436.515
31.90000 438.861
32.07000 414.622
32.24000 415.943
32.41000 413.927
32.58000 395.262
32.75000 411.537
32.92000 392.847
33.09000 394.471
33.26000 396.849
33.43000 410.872
33.60000 383.730
33.77000 392.917
33.94000 382.615
34.11000 374.918
34.28000 392.057
34.45000 375.002
34.62000 379.932
34.79000 381.209
34.96000 391.309
35.13000 363.942
35.30000 387.287
35.47000 362.329
35.64000 364.679
35.81000 353.930
35.98000 372.151
36.15000 361.301
36.32000 369.111
36.49000 336.347
36.66000 353.503
36.83000 349.339
37.00000 354.752
37.17000 359.479
37.34000 340.006
37.51000 328.161
37.68000 338.372
37.85000 333.239
38.02000 330.383
38.19000 321.006
38.36000 357.878
38.53000 322.878
38.70000 335.351
38.87000 316.309
39.04000 328.510
39.21000 333.726
39.38000 306.864
39.55000 304.363
39.72000 314.048
39.89000 315.290
40.06000 314.752
40.23000 319.997
40.40000 316.014
40.57000 312.126
40.74000 313.432
40.91000 317.001
41.08000 329.354
41.25000 305.202
41.42000 340.859
41.59000 373.650
41.76000 892.718
41.93000 509.451
42.10000 328.906
42.27000 329.324
42.44000 341.940
42.61000 351.429
42.78000 361.339
42.95000 351.549
43.12000 353.869
43.29000 380.299
43.46000 382.013
43.63000 413.714
43.80000 439.289
43.97000 458.016
44.14000 553.954
44.31000 2049.991
44.48000 4093.105
44.65000 1193.180
44.82000 1501.237
44.99000 965.452
45.16000 1071.168
45.33000 1211.003
45.50000 1434.046
45.67000 1741.542
45.84000 2124.948
46.01000 2855.818
46.18000 6838.707
46.35000 137637.766
46.52000 370963.313
46.69000 106138.648
46.86000 5442.386
47.03000 3098.862
47.20000 2261.564
47.37000 1714.240
47.54000 1339.365
47.71000 1073.749
47.88000 876.658
48.05000 731.576
48.22000 612.063
48.39000 523.049
48.56000 462.344
48.73000 436.464
48.90000 409.650
49.07000 374.973
49.24000 342.457
49.41000 340.846
49.58000 321.443
49.75000 303.326
49.92000 316.244
50.09000 283.084
50.26000 270.728
50.43000 291.924
50.60000 266.434
50.77000 268.536
50.94000 288.106
51.11000 260.174
51.28000 249.831
51.45000 236.687
51.62000 225.288
51.79000 251.456
51.96000 231.885
52.13000 224.151
52.30000 221.806
52.47000 208.164
52.64000 204.576
52.81000 228.014
52.98000 196.649
53.15000 208.402
53.32000 201.477
53.49000 197.214
53.66000 193.291
53.83000 194.995
54.00000 187.721
54.17000 194.156
54.34000 178.346
54.51000 188.544
54.68000 186.997
54.85000 197.941
55.02000 179.517
55.19000 170.864
55.36000 182.332
55.53000 171.821
55.70000 176.551
55.87000 189.786
56.04000 165.365
56.21000 176.209
56.38000 171.012
56.55000 162.206
56.72000 165.293
56.89000 172.865
57.06000 174.479
57.23000 153.577
57.40000 164.942
57.57000 165.560
57.74000 156.635
57.91000 161.076
58.08000 165.572
58.25000 165.284
58.42000 157.850
58.59000 157.213
58.76000 151.749
58.93000 166.227
59.10000 149.375
59.27000 156.295
59.44000 162.900
59.61000 146.966
59.78000 150.071
59.95000 150.456
60.12000 151.486
60.29000 149.592
60.46000 151.862
60.63000 158.068
60.80000 144.447
60.97000 143.938
61.14000 143.036
61.31000 157.972
61.48000 141.690
61.65000 137.115
61.82000 143.067
61.99000 147.504
62.16000 147.742
62.33000 142.529
62.50000 140.985
62.67000 137.720
62.84000 136.569
63.01000 128.498
63.18000 129.948
63.35000 142.096
63.52000 136.108
63.69000 136.346
63.86000 138.369
64.03000 135.043
64.20000 140.459
64.37000 135.993
64.54000 139.872
64.71000 152.710
64.88000 130.207
65.05000 128.443
65.22000 131.320
65.39000 124.363
65.56000 121.297
65.73000 128.851
65.90000 123.627
66.07000 134.579
66.24000 127.212
66.41000 130.850
66.58000 126.676
66.75000 130.486
66.92000 122.087
67.09000 127.934
67.26000 125.908
67.43000 129.856
67.60000 123.046
67.77000 116.213
67.94000 120.216
68.11000 132.490
68.28000 126.152
68.45000 131.711
68.62000 133.791
68.79000 142.815
68.96000 169.499
69.13000 238.989
69.30000 137.448
69.47000 131.867
69.64000 155.210
69.81000 140.630
69.98000 130.877
70.00000 134.798