Folder: Master-Thesis/XRD/08-10-2025 Dep 7/XY Data (part 5)

File: BTO_Mapping_Theta2Theta_08-10-2025_001_44_-15-000_-25-981.xy
20.00000 494.354
20.17000 472.129
20.34000 478.085
20.51000 463.375
20.68000 464.685
20.85000 469.020
21.02000 467.633
21.19000 472.951
21.36000 482.549
21.53000 476.142
21.70000 483.476
21.87000 571.420
22.04000 621.445
22.21000 538.092
22.38000 491.102
22.55000 456.734
22.72000 447.531
22.89000 430.314
23.06000 453.295
23.23000 439.712
23.40000 435.066
23.57000 421.513
23.74000 453.451
23.91000 453.419
24.08000 459.893
24.25000 446.926
24.42000 414.376
24.59000 410.036
24.76000 404.097
24.93000 417.075
25.10000 412.082
25.27000 389.465
25.44000 389.226
25.61000 398.358
25.78000 380.719
25.95000 403.666
26.12000 382.093
26.29000 383.340
26.46000 379.324
26.63000 385.835
26.80000 382.711
26.97000 374.128
27.14000 382.405
27.31000 372.561
27.48000 382.408
27.65000 367.097
27.82000 382.759
27.99000 355.798
28.16000 366.829
28.33000 379.486
28.50000 362.982
28.67000 357.282
28.84000 345.030
29.01000 353.758
29.18000 366.670
29.35000 354.562
29.52000 346.543
29.69000 375.510
29.86000 397.870
30.03000 439.617
30.20000 411.100
30.37000 393.457
30.54000 354.397
30.71000 405.246
30.88000 453.863
31.05000 796.154
31.22000 1798.791
31.39000 2298.501
31.56000 1129.454
31.73000 468.277
31.90000 378.416
32.07000 340.111
32.24000 339.891
32.41000 319.928
32.58000 318.883
32.75000 309.691
32.92000 333.248
33.09000 309.659
33.26000 293.905
33.43000 280.675
33.60000 296.228
33.77000 293.582
33.94000 321.080
34.11000 316.356
34.28000 323.941
34.45000 338.635
34.62000 309.827
34.79000 302.944
34.96000 259.306
35.13000 280.611
35.30000 283.429
35.47000 273.209
35.64000 260.541
35.81000 270.290
35.98000 266.858
36.15000 265.886
36.32000 251.898
36.49000 261.527
36.66000 273.185
36.83000 279.897
37.00000 283.133
37.17000 270.796
37.34000 262.678
37.51000 252.588
37.68000 248.664
37.85000 264.033
38.02000 270.891
38.19000 282.723
38.36000 413.694
38.53000 734.334
38.70000 926.184
38.87000 623.997
39.04000 327.949
39.21000 236.082
39.38000 237.530
39.55000 242.695
39.72000 225.562
39.89000 221.583
40.06000 225.642
40.23000 228.360
40.40000 223.970
40.57000 218.758
40.74000 226.971
40.91000 207.000
41.08000 212.526
41.25000 209.431
41.42000 211.352
41.59000 197.332
41.76000 200.464
41.93000 212.327
42.10000 208.230
42.27000 194.475
42.44000 196.608
42.61000 201.452
42.78000 199.778
42.95000 201.242
43.12000 201.004
43.29000 200.497
43.46000 210.704
43.63000 196.025
43.80000 189.455
43.97000 189.428
44.14000 191.811
44.31000 211.035
44.48000 218.173
44.65000 250.604
44.82000 291.504
44.99000 333.004
45.16000 296.067
45.33000 249.008
45.50000 226.241
45.67000 213.740
45.84000 200.117
46.01000 183.493
46.18000 184.177
46.35000 171.410
46.52000 185.133
46.69000 179.981
46.86000 172.131
47.03000 174.978
47.20000 173.289
47.37000 167.335
47.54000 165.637
47.71000 156.060
47.88000 165.738
48.05000 155.902
48.22000 156.417
48.39000 166.364
48.56000 159.466
48.73000 153.689
48.90000 157.776
49.07000 155.540
49.24000 158.500
49.41000 153.416
49.58000 145.492
49.75000 155.904
49.92000 155.869
50.09000 157.182
50.26000 181.450
50.43000 213.275
50.60000 226.542
50.77000 215.797
50.94000 171.783
51.11000 161.333
51.28000 154.901
51.45000 142.637
51.62000 141.677
51.79000 158.931
51.96000 142.955
52.13000 136.040
52.30000 144.562
52.47000 140.478
52.64000 135.865
52.81000 139.090
52.98000 152.491
53.15000 151.084
53.32000 162.537
53.49000 153.502
53.66000 154.986
53.83000 142.752
54.00000 139.436
54.17000 139.174
54.34000 154.218
54.51000 135.272
54.68000 139.068
54.85000 146.383
55.02000 149.870
55.19000 162.564
55.36000 227.395
55.53000 357.399
55.70000 622.113
55.87000 709.547
56.04000 512.759
56.21000 297.042
56.38000 180.896
56.55000 140.493
56.72000 130.735
56.89000 135.008
57.06000 132.591
57.23000 139.362
57.40000 127.914
57.57000 130.401
57.74000 126.540
57.91000 127.798
58.08000 126.732
58.25000 129.327
58.42000 123.202
58.59000 113.802
58.76000 119.338
58.93000 122.557
59.10000 118.325
59.27000 115.159
59.44000 118.896
59.61000 110.242
59.78000 121.611
59.95000 119.463
60.12000 113.503
60.29000 116.024
60.46000 116.784
60.63000 116.196
60.80000 124.436
60.97000 120.497
61.14000 113.978
61.31000 121.295
61.48000 135.292
61.65000 314.150
61.82000 215.677
61.99000 131.866
62.16000 140.532
62.33000 126.745
62.50000 147.240
62.67000 133.437
62.84000 126.263
63.01000 136.458
63.18000 141.330
63.35000 138.162
63.52000 133.757
63.69000 130.635
63.86000 137.800
64.03000 144.598
64.20000 146.329
64.37000 161.527
64.54000 171.667
64.71000 175.236
64.88000 174.308
65.05000 212.979
65.22000 286.365
65.39000 345.809
65.56000 389.088
65.73000 1034.828
65.90000 2249.508
66.07000 583.681
66.24000 385.047
66.41000 673.418
66.58000 432.958
66.75000 350.587
66.92000 375.241
67.09000 382.813
67.26000 402.627
67.43000 401.462
67.60000 426.380
67.77000 477.802
67.94000 507.632
68.11000 514.346
68.28000 586.319
68.45000 645.446
68.62000 905.986
68.79000 1698.925
68.96000 8596.841
69.13000 49702.781
69.30000 28670.896
69.47000 8057.371
69.64000 989.898
69.81000 650.302
69.98000 536.971
70.00000 520.343

File: BTO_Mapping_Theta2Theta_08-10-2025_001_46_-1-045_-9-945.xy
20.00000 471.280
20.17000 479.350
20.34000 466.575
20.51000 470.671
20.68000 465.609
20.85000 457.775
21.02000 461.904
21.19000 468.237
21.36000 449.586
21.53000 474.562
21.70000 479.969
21.87000 487.946
22.04000 543.796
22.21000 517.894
22.38000 477.910
22.55000 467.137
22.72000 439.814
22.89000 424.156
23.06000 436.626
23.23000 445.187
23.40000 425.961
23.57000 431.176
23.74000 457.338
23.91000 476.533
24.08000 475.735
24.25000 437.060
24.42000 427.554
24.59000 425.446
24.76000 400.487
24.93000 415.517
25.10000 410.506
25.27000 412.090
25.44000 389.206
25.61000 392.783
25.78000 400.611
25.95000 402.118
26.12000 394.844
26.29000 366.354
26.46000 375.767
26.63000 373.048
26.80000 380.910
26.97000 374.096
27.14000 383.483
27.31000 371.978
27.48000 398.258
27.65000 377.217
27.82000 368.135
27.99000 357.007
28.16000 347.534
28.33000 353.127
28.50000 370.818
28.67000 347.539
28.84000 356.900
29.01000 342.410
29.18000 342.535
29.35000 349.299
29.52000 347.350
29.69000 358.631
29.86000 370.087
30.03000 379.957
30.20000 369.589
30.37000 360.103
30.54000 367.230
30.71000 376.760
30.88000 375.344
31.05000 486.341
31.22000 823.563
31.39000 1099.015
31.56000 703.945
31.73000 412.925
31.90000 348.789
32.07000 334.631
32.24000 332.219
32.41000 340.413
32.58000 327.308
32.75000 322.191
32.92000 320.325
33.09000 296.823
33.26000 292.154
33.43000 294.303
33.60000 309.279
33.77000 294.155
33.94000 315.345
34.11000 324.781
34.28000 352.764
34.45000 366.767
34.62000 321.290
34.79000 289.555
34.96000 280.443
35.13000 269.525
35.30000 264.317
35.47000 257.783
35.64000 269.014
35.81000 263.642
35.98000 256.502
36.15000 257.192
36.32000 252.035
36.49000 259.040
36.66000 271.346
36.83000 282.728
37.00000 299.524
37.17000 289.232
37.34000 260.265
37.51000 249.641
37.68000 255.847
37.85000 260.841
38.02000 246.082
38.19000 258.853
38.36000 361.641
38.53000 748.865
38.70000 1234.275
38.87000 843.335
39.04000 365.080
39.21000 262.889
39.38000 235.689
39.55000 245.409
39.72000 241.387
39.89000 228.229
40.06000 226.712
40.23000 229.471
40.40000 225.636
40.57000 211.552
40.74000 212.137
40.91000 218.517
41.08000 214.242
41.25000 218.636
41.42000 204.612
41.59000 203.084
41.76000 206.890
41.93000 211.553
42.10000 203.484
42.27000 197.805
42.44000 222.426
42.61000 217.860
42.78000 206.379
42.95000 209.635
43.12000 193.709
43.29000 201.368
43.46000 191.893
43.63000 181.745
43.80000 184.319
43.97000 198.022
44.14000 206.182
44.31000 192.398
44.48000 205.576
44.65000 223.090
44.82000 244.462
44.99000 273.695
45.16000 249.781
45.33000 233.977
45.50000 216.648
45.67000 202.022
45.84000 196.278
46.01000 185.733
46.18000 166.957
46.35000 178.941
46.52000 181.399
46.69000 169.342
46.86000 165.872
47.03000 172.187
47.20000 163.693
47.37000 168.679
47.54000 162.623
47.71000 155.433
47.88000 160.553
48.05000 153.424
48.22000 161.941
48.39000 166.661
48.56000 156.555
48.73000 152.352
48.90000 149.403
49.07000 146.614
49.24000 147.369
49.41000 159.813
49.58000 154.476
49.75000 158.314
49.92000 150.453
50.09000 149.104
50.26000 164.443
50.43000 172.377
50.60000 164.269
50.77000 166.838
50.94000 164.956
51.11000 140.931
51.28000 143.813
51.45000 159.165
51.62000 144.038
51.79000 144.432
51.96000 139.641
52.13000 146.764
52.30000 144.895
52.47000 140.328
52.64000 133.509
52.81000 135.812
52.98000 134.944
53.15000 145.621
53.32000 159.617
53.49000 167.023
53.66000 133.749
53.83000 152.994
54.00000 136.200
54.17000 139.070
54.34000 141.325
54.51000 138.854
54.68000 141.677
54.85000 138.398
55.02000 136.707
55.19000 158.634
55.36000 171.168
55.53000 255.670
55.70000 458.933
55.87000 691.153
56.04000 639.120
56.21000 361.479
56.38000 201.187
56.55000 156.200
56.72000 136.629
56.89000 125.763
57.06000 134.709
57.23000 130.640
57.40000 133.159
57.57000 135.338
57.74000 132.450
57.91000 134.759
58.08000 123.177
58.25000 123.712
58.42000 115.853
58.59000 125.465
58.76000 121.776
58.93000 117.164
59.10000 124.543
59.27000 113.508
59.44000 122.533
59.61000 119.710
59.78000 123.305
59.95000 112.417
60.12000 120.567
60.29000 120.187
60.46000 124.898
60.63000 116.768
60.80000 118.508
60.97000 119.921
61.14000 125.481
61.31000 121.163
61.48000 120.014
61.65000 283.793
61.82000 203.436
61.99000 128.845
62.16000 126.579
62.33000 126.598
62.50000 131.966
62.67000 137.605
62.84000 128.450
63.01000 127.475
63.18000 122.782
63.35000 128.743
63.52000 135.251
63.69000 128.393
63.86000 145.814
64.03000 143.387
64.20000 146.117
64.37000 149.837
64.54000 139.820
64.71000 161.879
64.88000 163.378
65.05000 182.447
65.22000 217.519
65.39000 256.001
65.56000 308.704
65.73000 948.645
65.90000 1975.320
66.07000 502.967
66.24000 364.841
66.41000 601.798
66.58000 408.019
66.75000 345.673
66.92000 338.461
67.09000 381.988
67.26000 394.169
67.43000 415.476
67.60000 427.844
67.77000 437.233
67.94000 489.688
68.11000 502.051
68.28000 547.084
68.45000 623.204
68.62000 864.765
68.79000 1560.753
68.96000 8403.700
69.13000 43737.629
69.30000 24121.553
69.47000 6308.143
69.64000 896.936
69.81000 622.822
69.98000 513.339
70.00000 496.912

File: BTO_Mapping_Theta2Theta_08-10-2025_001_47_-2-091_-19-890.xy
20.00000 464.749
20.17000 474.958
20.34000 480.252
20.51000 466.555
20.68000 470.157
20.85000 460.360
21.02000 482.486
21.19000 462.530
21.36000 467.731
21.53000 462.859
21.70000 476.638
21.87000 501.909
22.04000 560.715
22.21000 524.336
22.38000 484.888
22.55000 462.867
22.72000 427.285
22.89000 425.337
23.06000 417.220
23.23000 427.909
23.40000 440.483
23.57000 438.826
23.74000 448.536
23.91000 492.982
24.08000 486.842
24.25000 451.588
24.42000 416.301
24.59000 406.835
24.76000 403.282
24.93000 404.769
25.10000 406.198
25.27000 397.706
25.44000 397.702
25.61000 398.281
25.78000 392.252
25.95000 363.894
26.12000 382.823
26.29000 375.108
26.46000 373.127
26.63000 360.354
26.80000 376.385
26.97000 380.878
27.14000 374.281
27.31000 398.768
27.48000 371.502
27.65000 386.429
27.82000 369.466
27.99000 377.999
28.16000 350.702
28.33000 360.868
28.50000 363.013
28.67000 345.092
28.84000 355.756
29.01000 353.169
29.18000 338.332
29.35000 347.962
29.52000 359.053
29.69000 348.420
29.86000 366.807
30.03000 376.111
30.20000 356.868
30.37000 351.874
30.54000 367.210
30.71000 367.785
30.88000 387.890
31.05000 488.863
31.22000 870.004
31.39000 1123.300
31.56000 715.056
31.73000 443.007
31.90000 368.019
32.07000 329.967
32.24000 328.671
32.41000 324.238
32.58000 326.412
32.75000 317.681
32.92000 311.072
33.09000 299.720
33.26000 304.416
33.43000 302.045
33.60000 297.528
33.77000 299.823
33.94000 314.815
34.11000 335.876
34.28000 350.436
34.45000 351.634
34.62000 330.512
34.79000 310.034
34.96000 269.790
35.13000 282.387
35.30000 269.378
35.47000 283.531
35.64000 259.703
35.81000 261.154
35.98000 263.204
36.15000 255.373
36.32000 263.693
36.49000 259.734
36.66000 262.037
36.83000 256.101
37.00000 282.229
37.17000 274.314
37.34000 264.902
37.51000 264.212
37.68000 248.793
37.85000 251.084
38.02000 262.300
38.19000 273.902
38.36000 387.865
38.53000 811.807
38.70000 1249.636
38.87000 856.324
39.04000 349.655
39.21000 241.210
39.38000 231.891
39.55000 232.793
39.72000 227.224
39.89000 228.242
40.06000 225.935
40.23000 232.656
40.40000 223.622
40.57000 237.768
40.74000 224.435
40.91000 213.102
41.08000 204.159
41.25000 204.777
41.42000 211.810
41.59000 210.665
41.76000 194.609
41.93000 204.206
42.10000 207.869
42.27000 192.577
42.44000 212.122
42.61000 207.000
42.78000 211.186
42.95000 196.504
43.12000 197.443
43.29000 200.773
43.46000 198.622
43.63000 200.645
43.80000 191.473
43.97000 192.857
44.14000 192.286
44.31000 200.675
44.48000 202.744
44.65000 229.341
44.82000 247.503
44.99000 263.264
45.16000 258.013
45.33000 228.496
45.50000 211.714
45.67000 214.503
45.84000 187.833
46.01000 181.143
46.18000 183.575
46.35000 178.127
46.52000 178.576
46.69000 180.573
46.86000 170.954
47.03000 170.263
47.20000 165.715
47.37000 168.404
47.54000 171.002
47.71000 157.536
47.88000 159.476
48.05000 164.221
48.22000 150.854
48.39000 162.807
48.56000 155.598
48.73000 148.512
48.90000 146.512
49.07000 145.475
49.24000 146.375
49.41000 148.741
49.58000 149.134
49.75000 152.138
49.92000 150.265
50.09000 157.667
50.26000 148.544
50.43000 161.028
50.60000 179.181
50.77000 163.953
50.94000 162.514
51.11000 163.704
51.28000 150.640
51.45000 158.642
51.62000 146.432
51.79000 133.981
51.96000 139.355
52.13000 143.122
52.30000 133.770
52.47000 144.866
52.64000 149.285
52.81000 148.295
52.98000 150.873
53.15000 157.017
53.32000 158.832
53.49000 157.603
53.66000 149.566
53.83000 144.671
54.00000 138.307
54.17000 136.356
54.34000 136.414
54.51000 151.443
54.68000 145.410
54.85000 138.593
55.02000 144.481
55.19000 156.437
55.36000 182.782
55.53000 268.262
55.70000 491.993
55.87000 702.201
56.04000 625.579
56.21000 342.176
56.38000 194.380
56.55000 151.807
56.72000 146.987
56.89000 138.196
57.06000 129.658
57.23000 136.550
57.40000 125.842
57.57000 124.783
57.74000 135.494
57.91000 124.999
58.08000 126.904
58.25000 125.341
58.42000 119.488
58.59000 112.605
58.76000 109.358
58.93000 125.056
59.10000 117.190
59.27000 118.813
59.44000 114.865
59.61000 113.642
59.78000 114.197
59.95000 119.907
60.12000 115.555
60.29000 117.819
60.46000 117.203
60.63000 116.101
60.80000 120.028
60.97000 126.964
61.14000 119.809
61.31000 118.821
61.48000 126.766
61.65000 291.302
61.82000 186.343
61.99000 127.716
62.16000 135.278
62.33000 127.860
62.50000 131.776
62.67000 129.821
62.84000 137.704
63.01000 140.853
63.18000 136.754
63.35000 138.895
63.52000 133.343
63.69000 140.315
63.86000 140.208
64.03000 139.348
64.20000 148.950
64.37000 153.448
64.54000 156.628
64.71000 157.258
64.88000 188.536
65.05000 190.962
65.22000 215.887
65.39000 259.352
65.56000 318.074
65.73000 990.135
65.90000 1952.639
66.07000 497.144
66.24000 387.978
66.41000 624.528
66.58000 408.761
66.75000 336.882
66.92000 347.503
67.09000 357.682
67.26000 390.791
67.43000 405.157
67.60000 422.449
67.77000 446.484
67.94000 450.765
68.11000 513.832
68.28000 559.092
68.45000 645.260
68.62000 885.055
68.79000 1550.637
68.96000 8842.760
69.13000 44652.965
69.30000 24413.902
69.47000 6202.488
69.64000 905.805
69.81000 628.277
69.98000 502.643
70.00000 497.368

File: BTO_Mapping_Theta2Theta_08-10-2025_001_48_-3-136_-29-836.xy
20.00000 486.142
20.17000 472.793
20.34000 456.255
20.51000 464.680
20.68000 472.638
20.85000 473.122
21.02000 464.598
21.19000 465.335
21.36000 470.718
21.53000 481.089
21.70000 466.765
21.87000 507.555
22.04000 568.684
22.21000 509.158
22.38000 473.192
22.55000 436.465
22.72000 459.389
22.89000 439.644
23.06000 471.998
23.23000 454.907
23.40000 428.076
23.57000 421.286
23.74000 445.552
23.91000 488.639
24.08000 471.458
24.25000 454.639
24.42000 406.418
24.59000 425.218
24.76000 415.878
24.93000 399.579
25.10000 402.500
25.27000 423.843
25.44000 394.630
25.61000 412.805
25.78000 398.852
25.95000 370.951
26.12000 400.641
26.29000 373.752
26.46000 364.417
26.63000 380.073
26.80000 386.532
26.97000 370.746
27.14000 366.309
27.31000 373.819
27.48000 375.036
27.65000 368.213
27.82000 382.324
27.99000 364.967
28.16000 370.565
28.33000 363.132
28.50000 352.287
28.67000 358.460
28.84000 338.871
29.01000 363.541
29.18000 356.443
29.35000 356.204
29.52000 354.954
29.69000 359.586
29.86000 387.793
30.03000 382.987
30.20000 364.927
30.37000 350.982
30.54000 363.307
30.71000 359.940
30.88000 393.633
31.05000 519.601
31.22000 965.734
31.39000 1203.221
31.56000 734.370
31.73000 415.646
31.90000 373.103
32.07000 343.449
32.24000 337.453
32.41000 323.291
32.58000 311.412
32.75000 304.301
32.92000 318.673
33.09000 312.401
33.26000 296.275
33.43000 284.711
33.60000 312.452
33.77000 299.211
33.94000 315.794
34.11000 329.672
34.28000 351.500
34.45000 348.356
34.62000 316.103
34.79000 301.942
34.96000 273.664
35.13000 269.554
35.30000 253.231
35.47000 273.557
35.64000 259.071
35.81000 272.790
35.98000 257.732
36.15000 259.115
36.32000 257.294
36.49000 263.080
36.66000 248.482
36.83000 281.989
37.00000 312.320
37.17000 276.731
37.34000 265.830
37.51000 259.667
37.68000 264.017
37.85000 249.584
38.02000 257.748
38.19000 292.817
38.36000 406.507
38.53000 878.004
38.70000 1283.992
38.87000 860.144
39.04000 340.556
39.21000 255.746
39.38000 249.886
39.55000 241.834
39.72000 233.496
39.89000 222.570
40.06000 228.200
40.23000 224.140
40.40000 217.912
40.57000 219.672
40.74000 219.805
40.91000 212.661
41.08000 206.125
41.25000 217.191
41.42000 212.712
41.59000 204.128
41.76000 208.328
41.93000 213.373
42.10000 219.926
42.27000 217.674
42.44000 209.707
42.61000 214.565
42.78000 199.517
42.95000 193.432
43.12000 198.666
43.29000 195.786
43.46000 179.742
43.63000 201.557
43.80000 184.218
43.97000 194.006
44.14000 201.253
44.31000 197.512
44.48000 208.812
44.65000 237.069
44.82000 244.682
44.99000 284.732
45.16000 260.770
45.33000 223.904
45.50000 210.787
45.67000 196.817
45.84000 191.862
46.01000 186.889
46.18000 179.865
46.35000 171.043
46.52000 172.520
46.69000 179.232
46.86000 175.787
47.03000 176.715
47.20000 168.909
47.37000 162.381
47.54000 164.595
47.71000 156.730
47.88000 156.493
48.05000 156.168
48.22000 152.914
48.39000 160.504
48.56000 147.698
48.73000 155.014
48.90000 150.712
49.07000 168.021
49.24000 153.226
49.41000 141.600
49.58000 148.637
49.75000 152.818
49.92000 162.878
50.09000 154.266
50.26000 155.982
50.43000 167.667
50.60000 186.769
50.77000 166.696
50.94000 155.437
51.11000 159.636
51.28000 151.690
51.45000 151.982
51.62000 136.670
51.79000 139.464
51.96000 146.043
52.13000 137.541
52.30000 143.314
52.47000 136.290
52.64000 137.339
52.81000 135.129
52.98000 142.200
53.15000 150.312
53.32000 162.434
53.49000 164.703
53.66000 159.979
53.83000 147.250
54.00000 152.756
54.17000 148.389
54.34000 141.477
54.51000 139.995
54.68000 148.420
54.85000 147.159
55.02000 148.022
55.19000 149.323
55.36000 182.633
55.53000 291.270
55.70000 540.278
55.87000 761.845
56.04000 637.075
56.21000 353.065
56.38000 200.008
56.55000 145.694
56.72000 142.595
56.89000 140.983
57.06000 140.449
57.23000 136.879
57.40000 123.338
57.57000 124.677
57.74000 126.772
57.91000 127.613
58.08000 121.700
58.25000 115.646
58.42000 132.617
58.59000 119.458
58.76000 125.839
58.93000 121.131
59.10000 118.369
59.27000 118.918
59.44000 116.796
59.61000 118.322
59.78000 112.715
59.95000 122.361
60.12000 115.446
60.29000 126.246
60.46000 118.806
60.63000 112.719
60.80000 117.950
60.97000 124.939
61.14000 118.751
61.31000 113.202
61.48000 123.819
61.65000 280.173
61.82000 201.866
61.99000 117.270
62.16000 120.493
62.33000 126.640
62.50000 124.346
62.67000 125.947
62.84000 129.834
63.01000 126.463
63.18000 140.924
63.35000 124.584
63.52000 125.623
63.69000 131.393
63.86000 139.450
64.03000 136.865
64.20000 150.110
64.37000 153.628
64.54000 157.799
64.71000 164.757
64.88000 180.784
65.05000 207.140
65.22000 223.075
65.39000 265.882
65.56000 321.968
65.73000 987.273
65.90000 1986.706
66.07000 494.133
66.24000 384.150
66.41000 623.158
66.58000 395.161
66.75000 346.139
66.92000 360.750
67.09000 384.312
67.26000 387.081
67.43000 398.055
67.60000 424.400
67.77000 445.385
67.94000 472.924
68.11000 506.797
68.28000 544.479
68.45000 656.871
68.62000 887.568
68.79000 1602.991
68.96000 9205.455
69.13000 45050.383
69.30000 24447.545
69.47000 6169.571
69.64000 912.026
69.81000 598.814
69.98000 527.327
70.00000 512.518

File: BTO_Mapping_Theta2Theta_08-10-2025_001_50_3-090_-9-511.xy
20.00000 487.799
20.17000 475.722
20.34000 489.491
20.51000 456.361
20.68000 464.677
20.85000 481.218
21.02000 467.561
21.19000 483.815
21.36000 481.314
21.53000 464.146
21.70000 467.915
21.87000 487.900
22.04000 546.495
22.21000 543.317
22.38000 476.327
22.55000 467.623
22.72000 453.563
22.89000 432.256
23.06000 449.581
23.23000 449.698
23.40000 440.630
23.57000 433.542
23.74000 464.530
23.91000 488.769
24.08000 513.093
24.25000 460.466
24.42000 421.522
24.59000 425.148
24.76000 408.834
24.93000 416.573
25.10000 389.151
25.27000 394.648
25.44000 396.039
25.61000 402.832
25.78000 387.388
25.95000 393.719
26.12000 391.353
26.29000 392.494
26.46000 387.917
26.63000 384.431
26.80000 399.977
26.97000 387.458
27.14000 395.697
27.31000 388.092
27.48000 368.352
27.65000 389.069
27.82000 377.289
27.99000 376.768
28.16000 365.931
28.33000 368.178
28.50000 355.660
28.67000 345.330
28.84000 350.558
29.01000 370.077
29.18000 347.615
29.35000 365.228
29.52000 350.758
29.69000 362.070
29.86000 368.060
30.03000 367.977
30.20000 374.839
30.37000 348.339
30.54000 350.689
30.71000 375.890
30.88000 392.842
31.05000 476.184
31.22000 785.217
31.39000 1128.664
31.56000 757.820
31.73000 453.717
31.90000 363.578
32.07000 325.311
32.24000 356.567
32.41000 323.324
32.58000 332.659
32.75000 328.126
32.92000 334.799
33.09000 306.462
33.26000 284.067
33.43000 295.852
33.60000 293.207
33.77000 311.006
33.94000 314.706
34.11000 327.981
34.28000 356.719
34.45000 335.628
34.62000 321.856
34.79000 297.218
34.96000 295.389
35.13000 290.520
35.30000 281.992
35.47000 257.708
35.64000 261.502
35.81000 265.861
35.98000 269.929
36.15000 263.335
36.32000 252.714
36.49000 266.768
36.66000 265.031
36.83000 274.752
37.00000 292.257
37.17000 282.932
37.34000 261.572
37.51000 251.902
37.68000 254.768
37.85000 257.173
38.02000 255.293
38.19000 275.065
38.36000 361.034
38.53000 699.661
38.70000 1180.409
38.87000 829.995
39.04000 339.996
39.21000 241.358
39.38000 237.983
39.55000 252.313
39.72000 230.793
39.89000 223.006
40.06000 221.318
40.23000 222.733
40.40000 209.787
40.57000 220.049
40.74000 218.926
40.91000 203.693
41.08000 219.681
41.25000 208.471
41.42000 211.258
41.59000 208.713
41.76000 213.389
41.93000 210.219
42.10000 215.978
42.27000 211.601
42.44000 208.390
42.61000 218.650
42.78000 208.512
42.95000 205.506
43.12000 204.661
43.29000 206.090
43.46000 199.260
43.63000 203.270
43.80000 190.279
43.97000 195.042
44.14000 205.356
44.31000 200.860
44.48000 212.306
44.65000 227.715
44.82000 236.738
44.99000 258.423
45.16000 249.170
45.33000 221.654
45.50000 222.458
45.67000 211.768
45.84000 200.892
46.01000 179.318
46.18000 182.913
46.35000 186.939
46.52000 176.518
46.69000 176.278
46.86000 189.838
47.03000 174.022
47.20000 171.389
47.37000 160.292
47.54000 149.207
47.71000 162.722
47.88000 155.259
48.05000 157.932
48.22000 148.972
48.39000 158.905
48.56000 168.682
48.73000 159.492
48.90000 161.758
49.07000 155.306
49.24000 147.183
49.41000 156.455
49.58000 155.193
49.75000 158.992
49.92000 148.939
50.09000 153.641
50.26000 166.718
50.43000 160.345
50.60000 158.946
50.77000 159.893
50.94000 147.438
51.11000 165.203
51.28000 150.363
51.45000 142.662
51.62000 151.483
51.79000 145.017
51.96000 142.189
52.13000 136.259
52.30000 142.968
52.47000 144.587
52.64000 144.709
52.81000 136.301
52.98000 145.084
53.15000 148.368
53.32000 159.812
53.49000 164.730
53.66000 145.519
53.83000 138.992
54.00000 140.332
54.17000 136.808
54.34000 141.607
54.51000 132.140
54.68000 142.550
54.85000 143.279
55.02000 148.655
55.19000 160.155
55.36000 181.081
55.53000 241.440
55.70000 422.292
55.87000 685.428
56.04000 621.803
56.21000 369.961
56.38000 220.220
56.55000 145.130
56.72000 150.085
56.89000 134.738
57.06000 126.157
57.23000 136.171
57.40000 121.002
57.57000 126.933
57.74000 126.996
57.91000 124.028
58.08000 123.633
58.25000 116.101
58.42000 118.481
58.59000 124.162
58.76000 114.648
58.93000 117.966
59.10000 106.990
59.27000 114.960
59.44000 113.551
59.61000 124.941
59.78000 114.849
59.95000 110.843
60.12000 116.432
60.29000 109.207
60.46000 110.221
60.63000 123.186
60.80000 112.439
60.97000 119.221
61.14000 125.855
61.31000 127.328
61.48000 122.270
61.65000 259.277
61.82000 180.778
61.99000 132.890
62.16000 119.006
62.33000 131.434
62.50000 127.902
62.67000 126.165
62.84000 125.353
63.01000 136.797
63.18000 132.109
63.35000 138.337
63.52000 127.962
63.69000 139.775
63.86000 135.963
64.03000 145.406
64.20000 141.352
64.37000 149.215
64.54000 160.381
64.71000 168.582
64.88000 176.192
65.05000 193.109
65.22000 206.535
65.39000 252.138
65.56000 324.774
65.73000 926.862
65.90000 1822.565
66.07000 481.573
66.24000 372.707
66.41000 597.551
66.58000 415.346
66.75000 352.685
66.92000 346.281
67.09000 371.571
67.26000 392.307
67.43000 394.687
67.60000 417.593
67.77000 447.521
67.94000 466.211
68.11000 513.694
68.28000 542.557
68.45000 631.964
68.62000 863.463
68.79000 1491.210
68.96000 8476.960
69.13000 42044.336
69.30000 22931.682
69.47000 5770.151
69.64000 878.180
69.81000 615.887
69.98000 503.073
70.00000 496.782