Folder: Master-Thesis/XRD/08-10-2025 Dep 7/XY Data (part 4)

File: BTO_Mapping_Theta2Theta_08-10-2025_001_36_-29-344_-6-237.xy
20.00000 479.401
20.17000 465.746
20.34000 478.623
20.51000 466.274
20.68000 476.529
20.85000 448.233
21.02000 491.988
21.19000 488.066
21.36000 495.772
21.53000 485.231
21.70000 516.383
21.87000 664.357
22.04000 774.193
22.21000 620.870
22.38000 513.662
22.55000 453.391
22.72000 434.480
22.89000 420.517
23.06000 451.532
23.23000 425.342
23.40000 427.478
23.57000 417.409
23.74000 442.227
23.91000 431.308
24.08000 438.410
24.25000 410.027
24.42000 412.887
24.59000 416.773
24.76000 394.447
24.93000 398.880
25.10000 401.702
25.27000 417.608
25.44000 404.578
25.61000 400.388
25.78000 403.199
25.95000 390.252
26.12000 371.092
26.29000 405.883
26.46000 382.425
26.63000 370.042
26.80000 363.948
26.97000 380.679
27.14000 368.412
27.31000 381.706
27.48000 380.275
27.65000 393.998
27.82000 376.777
27.99000 360.574
28.16000 372.147
28.33000 375.233
28.50000 349.182
28.67000 366.380
28.84000 358.781
29.01000 361.006
29.18000 353.571
29.35000 357.540
29.52000 356.864
29.69000 371.208
29.86000 428.724
30.03000 449.808
30.20000 421.492
30.37000 399.776
30.54000 377.537
30.71000 389.444
30.88000 476.047
31.05000 858.767
31.22000 2206.624
31.39000 2785.600
31.56000 1320.692
31.73000 536.972
31.90000 376.712
32.07000 338.589
32.24000 321.064
32.41000 318.007
32.58000 318.685
32.75000 322.121
32.92000 324.194
33.09000 324.744
33.26000 288.752
33.43000 279.472
33.60000 305.794
33.77000 289.862
33.94000 293.816
34.11000 294.937
34.28000 311.360
34.45000 291.025
34.62000 297.355
34.79000 283.654
34.96000 275.070
35.13000 286.107
35.30000 264.189
35.47000 261.424
35.64000 262.476
35.81000 279.312
35.98000 271.996
36.15000 243.066
36.32000 284.278
36.49000 253.175
36.66000 256.816
36.83000 249.486
37.00000 257.073
37.17000 257.156
37.34000 243.992
37.51000 255.549
37.68000 245.234
37.85000 256.040
38.02000 248.302
38.19000 264.317
38.36000 332.312
38.53000 511.097
38.70000 571.653
38.87000 413.604
39.04000 279.494
39.21000 228.180
39.38000 234.463
39.55000 223.129
39.72000 225.474
39.89000 236.525
40.06000 218.290
40.23000 224.796
40.40000 230.917
40.57000 212.105
40.74000 221.064
40.91000 226.379
41.08000 212.715
41.25000 207.299
41.42000 209.676
41.59000 208.654
41.76000 210.918
41.93000 207.394
42.10000 212.273
42.27000 206.979
42.44000 213.103
42.61000 189.088
42.78000 200.218
42.95000 205.986
43.12000 210.069
43.29000 198.892
43.46000 200.563
43.63000 209.591
43.80000 205.585
43.97000 195.054
44.14000 198.787
44.31000 221.210
44.48000 234.650
44.65000 293.998
44.82000 431.384
44.99000 478.804
45.16000 364.337
45.33000 284.666
45.50000 249.396
45.67000 224.901
45.84000 193.852
46.01000 180.881
46.18000 194.601
46.35000 180.586
46.52000 177.363
46.69000 173.764
46.86000 172.137
47.03000 173.833
47.20000 171.334
47.37000 163.545
47.54000 162.813
47.71000 166.913
47.88000 164.036
48.05000 165.770
48.22000 166.836
48.39000 167.141
48.56000 167.040
48.73000 162.565
48.90000 157.784
49.07000 154.819
49.24000 157.742
49.41000 156.595
49.58000 153.811
49.75000 158.009
49.92000 155.134
50.09000 169.508
50.26000 195.031
50.43000 233.161
50.60000 248.833
50.77000 230.336
50.94000 179.327
51.11000 158.202
51.28000 141.414
51.45000 141.057
51.62000 130.757
51.79000 145.346
51.96000 146.473
52.13000 148.958
52.30000 143.574
52.47000 141.603
52.64000 149.374
52.81000 146.802
52.98000 145.112
53.15000 152.602
53.32000 160.274
53.49000 147.065
53.66000 141.512
53.83000 144.265
54.00000 147.094
54.17000 139.115
54.34000 139.913
54.51000 136.444
54.68000 147.255
54.85000 150.310
55.02000 153.593
55.19000 164.189
55.36000 225.465
55.53000 394.953
55.70000 601.045
55.87000 668.759
56.04000 472.678
56.21000 299.786
56.38000 193.964
56.55000 150.796
56.72000 142.166
56.89000 129.997
57.06000 132.636
57.23000 114.019
57.40000 139.092
57.57000 125.549
57.74000 128.684
57.91000 120.235
58.08000 128.580
58.25000 123.726
58.42000 122.152
58.59000 115.505
58.76000 119.615
58.93000 119.048
59.10000 124.925
59.27000 120.916
59.44000 115.171
59.61000 115.950
59.78000 120.949
59.95000 120.612
60.12000 114.222
60.29000 117.069
60.46000 120.506
60.63000 124.981
60.80000 123.543
60.97000 125.462
61.14000 127.801
61.31000 124.730
61.48000 121.919
61.65000 333.501
61.82000 251.851
61.99000 140.277
62.16000 131.491
62.33000 130.382
62.50000 119.984
62.67000 125.600
62.84000 130.387
63.01000 131.517
63.18000 130.645
63.35000 136.640
63.52000 148.837
63.69000 130.653
63.86000 150.138
64.03000 148.577
64.20000 140.135
64.37000 155.968
64.54000 162.429
64.71000 180.439
64.88000 204.553
65.05000 237.087
65.22000 314.208
65.39000 385.760
65.56000 438.728
65.73000 1047.983
65.90000 2504.957
66.07000 730.726
66.24000 440.684
66.41000 753.440
66.58000 515.609
66.75000 400.618
66.92000 377.641
67.09000 404.649
67.26000 415.140
67.43000 450.465
67.60000 448.445
67.77000 514.953
67.94000 542.256
68.11000 568.551
68.28000 597.575
68.45000 706.532
68.62000 956.630
68.79000 1826.520
68.96000 7946.193
69.13000 56007.016
69.30000 36068.582
69.47000 11799.675
69.64000 1156.922
69.81000 682.812
69.98000 546.128
70.00000 545.363

File: BTO_Mapping_Theta2Theta_08-10-2025_001_39_-16-180_-11-756.xy
20.00000 458.694
20.17000 470.083
20.34000 475.891
20.51000 471.693
20.68000 468.622
20.85000 466.533
21.02000 479.272
21.19000 450.547
21.36000 445.496
21.53000 457.112
21.70000 505.469
21.87000 535.183
22.04000 611.948
22.21000 526.131
22.38000 501.967
22.55000 461.686
22.72000 440.174
22.89000 461.695
23.06000 446.448
23.23000 450.686
23.40000 407.765
23.57000 435.334
23.74000 434.779
23.91000 429.981
24.08000 454.797
24.25000 418.001
24.42000 418.722
24.59000 420.503
24.76000 404.400
24.93000 400.647
25.10000 408.547
25.27000 409.938
25.44000 405.677
25.61000 387.593
25.78000 399.898
25.95000 399.284
26.12000 395.535
26.29000 382.272
26.46000 402.010
26.63000 376.263
26.80000 385.983
26.97000 390.123
27.14000 375.557
27.31000 363.679
27.48000 382.553
27.65000 376.843
27.82000 375.663
27.99000 368.907
28.16000 367.717
28.33000 359.416
28.50000 351.122
28.67000 364.425
28.84000 364.353
29.01000 339.649
29.18000 361.447
29.35000 359.835
29.52000 358.774
29.69000 375.218
29.86000 404.735
30.03000 443.626
30.20000 395.913
30.37000 365.527
30.54000 376.090
30.71000 376.524
30.88000 425.360
31.05000 736.377
31.22000 1788.870
31.39000 2340.828
31.56000 1131.368
31.73000 476.171
31.90000 370.446
32.07000 340.926
32.24000 332.291
32.41000 322.473
32.58000 321.674
32.75000 300.820
32.92000 321.622
33.09000 320.156
33.26000 306.716
33.43000 299.747
33.60000 292.887
33.77000 298.614
33.94000 315.115
34.11000 306.505
34.28000 332.401
34.45000 325.793
34.62000 321.134
34.79000 298.357
34.96000 295.522
35.13000 259.145
35.30000 282.478
35.47000 258.912
35.64000 253.472
35.81000 259.059
35.98000 281.756
36.15000 263.888
36.32000 248.812
36.49000 251.743
36.66000 270.060
36.83000 271.579
37.00000 279.224
37.17000 268.002
37.34000 266.296
37.51000 254.117
37.68000 248.473
37.85000 256.617
38.02000 273.434
38.19000 275.080
38.36000 380.184
38.53000 700.366
38.70000 939.029
38.87000 621.560
39.04000 322.141
39.21000 256.902
39.38000 245.544
39.55000 232.614
39.72000 252.535
39.89000 214.205
40.06000 227.436
40.23000 207.831
40.40000 218.163
40.57000 216.730
40.74000 219.623
40.91000 206.188
41.08000 210.700
41.25000 215.648
41.42000 201.433
41.59000 208.221
41.76000 208.028
41.93000 207.064
42.10000 204.523
42.27000 213.895
42.44000 207.296
42.61000 201.403
42.78000 192.675
42.95000 197.416
43.12000 197.290
43.29000 204.370
43.46000 196.012
43.63000 203.918
43.80000 188.129
43.97000 203.324
44.14000 211.819
44.31000 200.514
44.48000 211.463
44.65000 234.146
44.82000 278.415
44.99000 303.224
45.16000 308.861
45.33000 254.889
45.50000 237.945
45.67000 204.336
45.84000 203.704
46.01000 185.748
46.18000 169.858
46.35000 173.039
46.52000 181.047
46.69000 167.501
46.86000 180.656
47.03000 163.152
47.20000 164.682
47.37000 163.250
47.54000 163.659
47.71000 173.283
47.88000 146.637
48.05000 158.996
48.22000 150.904
48.39000 161.096
48.56000 154.097
48.73000 150.106
48.90000 163.129
49.07000 152.771
49.24000 148.437
49.41000 165.697
49.58000 148.924
49.75000 161.971
49.92000 155.918
50.09000 163.360
50.26000 160.197
50.43000 194.479
50.60000 225.764
50.77000 222.898
50.94000 169.686
51.11000 157.613
51.28000 152.718
51.45000 153.997
51.62000 136.920
51.79000 141.997
51.96000 145.642
52.13000 147.749
52.30000 138.418
52.47000 143.544
52.64000 142.968
52.81000 134.667
52.98000 145.198
53.15000 160.891
53.32000 154.068
53.49000 148.152
53.66000 155.501
53.83000 146.877
54.00000 138.170
54.17000 133.165
54.34000 138.617
54.51000 144.208
54.68000 143.731
54.85000 147.396
55.02000 156.046
55.19000 151.205
55.36000 202.323
55.53000 355.349
55.70000 570.327
55.87000 681.669
56.04000 530.802
56.21000 292.522
56.38000 185.836
56.55000 150.859
56.72000 143.520
56.89000 137.659
57.06000 133.873
57.23000 138.006
57.40000 138.025
57.57000 131.409
57.74000 123.814
57.91000 119.254
58.08000 120.069
58.25000 126.923
58.42000 122.607
58.59000 134.447
58.76000 119.077
58.93000 118.408
59.10000 126.831
59.27000 119.696
59.44000 123.835
59.61000 117.011
59.78000 112.947
59.95000 127.197
60.12000 111.491
60.29000 119.755
60.46000 116.123
60.63000 122.958
60.80000 120.138
60.97000 120.591
61.14000 122.096
61.31000 142.302
61.48000 125.828
61.65000 294.199
61.82000 215.309
61.99000 124.606
62.16000 128.213
62.33000 124.040
62.50000 126.056
62.67000 127.173
62.84000 129.514
63.01000 132.448
63.18000 129.086
63.35000 132.368
63.52000 132.106
63.69000 139.530
63.86000 136.898
64.03000 140.767
64.20000 142.298
64.37000 148.060
64.54000 166.086
64.71000 162.706
64.88000 205.348
65.05000 213.419
65.22000 263.980
65.39000 334.502
65.56000 396.265
65.73000 1000.195
65.90000 2192.292
66.07000 603.885
66.24000 390.609
66.41000 678.989
66.58000 445.287
66.75000 372.176
66.92000 364.993
67.09000 391.761
67.26000 398.579
67.43000 419.277
67.60000 452.114
67.77000 467.144
67.94000 490.111
68.11000 538.333
68.28000 591.176
68.45000 650.966
68.62000 895.694
68.79000 1632.523
68.96000 7935.163
69.13000 49489.246
69.30000 28947.705
69.47000 8451.676
69.64000 1017.969
69.81000 668.347
69.98000 532.792
70.00000 518.302

File: BTO_Mapping_Theta2Theta_08-10-2025_001_40_-24-271_-17-634.xy
20.00000 475.276
20.17000 471.643
20.34000 466.599
20.51000 479.111
20.68000 456.284
20.85000 473.782
21.02000 482.932
21.19000 468.940
21.36000 491.561
21.53000 476.378
21.70000 502.418
21.87000 646.878
22.04000 738.079
22.21000 602.417
22.38000 489.815
22.55000 455.491
22.72000 448.819
22.89000 440.594
23.06000 442.848
23.23000 444.999
23.40000 433.535
23.57000 431.754
23.74000 444.401
23.91000 429.071
24.08000 420.307
24.25000 417.255
24.42000 402.501
24.59000 406.844
24.76000 425.949
24.93000 400.826
25.10000 406.755
25.27000 395.894
25.44000 401.140
25.61000 391.303
25.78000 391.134
25.95000 409.725
26.12000 385.702
26.29000 394.304
26.46000 396.115
26.63000 387.296
26.80000 379.921
26.97000 364.431
27.14000 369.472
27.31000 391.539
27.48000 366.280
27.65000 361.909
27.82000 365.068
27.99000 376.944
28.16000 373.596
28.33000 376.652
28.50000 361.169
28.67000 363.258
28.84000 379.571
29.01000 353.899
29.18000 349.978
29.35000 349.515
29.52000 365.279
29.69000 379.726
29.86000 435.101
30.03000 454.474
30.20000 416.919
30.37000 364.662
30.54000 387.790
30.71000 383.414
30.88000 465.439
31.05000 909.912
31.22000 2197.545
31.39000 2661.076
31.56000 1232.403
31.73000 507.488
31.90000 373.819
32.07000 333.372
32.24000 336.998
32.41000 330.413
32.58000 341.242
32.75000 316.831
32.92000 332.196
33.09000 321.876
33.26000 299.118
33.43000 294.292
33.60000 304.124
33.77000 307.674
33.94000 306.764
34.11000 305.114
34.28000 303.804
34.45000 314.942
34.62000 302.966
34.79000 287.926
34.96000 277.548
35.13000 278.436
35.30000 270.003
35.47000 260.369
35.64000 258.147
35.81000 260.656
35.98000 276.746
36.15000 259.085
36.32000 257.479
36.49000 261.479
36.66000 273.762
36.83000 269.729
37.00000 273.433
37.17000 264.424
37.34000 251.096
37.51000 235.381
37.68000 251.675
37.85000 252.059
38.02000 243.106
38.19000 283.345
38.36000 360.284
38.53000 544.851
38.70000 595.513
38.87000 431.245
39.04000 279.178
39.21000 238.925
39.38000 242.310
39.55000 213.883
39.72000 245.953
39.89000 230.208
40.06000 224.324
40.23000 211.442
40.40000 228.341
40.57000 224.213
40.74000 204.714
40.91000 218.399
41.08000 207.491
41.25000 215.708
41.42000 209.812
41.59000 206.366
41.76000 213.727
41.93000 200.898
42.10000 227.032
42.27000 201.878
42.44000 210.338
42.61000 195.651
42.78000 204.891
42.95000 204.955
43.12000 231.158
43.29000 201.754
43.46000 207.256
43.63000 198.153
43.80000 198.832
43.97000 195.726
44.14000 200.604
44.31000 212.974
44.48000 217.421
44.65000 299.202
44.82000 407.137
44.99000 459.434
45.16000 350.596
45.33000 293.086
45.50000 244.377
45.67000 217.483
45.84000 197.388
46.01000 184.566
46.18000 185.158
46.35000 177.437
46.52000 174.400
46.69000 183.678
46.86000 166.832
47.03000 169.770
47.20000 162.407
47.37000 162.620
47.54000 162.926
47.71000 163.495
47.88000 159.700
48.05000 162.956
48.22000 156.626
48.39000 159.177
48.56000 157.890
48.73000 156.197
48.90000 163.212
49.07000 155.850
49.24000 154.671
49.41000 167.256
49.58000 154.361
49.75000 171.746
49.92000 157.520
50.09000 171.876
50.26000 191.430
50.43000 236.208
50.60000 261.177
50.77000 218.394
50.94000 187.311
51.11000 160.479
51.28000 158.552
51.45000 146.205
51.62000 147.907
51.79000 141.760
51.96000 145.459
52.13000 143.351
52.30000 149.300
52.47000 130.441
52.64000 137.882
52.81000 135.792
52.98000 143.564
53.15000 146.697
53.32000 156.223
53.49000 151.161
53.66000 142.055
53.83000 147.648
54.00000 127.844
54.17000 144.506
54.34000 145.248
54.51000 152.892
54.68000 143.627
54.85000 147.607
55.02000 151.032
55.19000 167.740
55.36000 240.583
55.53000 400.263
55.70000 607.684
55.87000 664.127
56.04000 503.360
56.21000 292.758
56.38000 182.822
56.55000 152.981
56.72000 147.067
56.89000 147.489
57.06000 132.015
57.23000 134.110
57.40000 132.439
57.57000 123.195
57.74000 127.424
57.91000 123.014
58.08000 133.764
58.25000 129.147
58.42000 119.647
58.59000 118.966
58.76000 119.629
58.93000 115.733
59.10000 128.026
59.27000 128.875
59.44000 127.128
59.61000 127.156
59.78000 113.811
59.95000 121.930
60.12000 115.312
60.29000 110.620
60.46000 112.077
60.63000 122.256
60.80000 118.549
60.97000 115.879
61.14000 114.815
61.31000 128.430
61.48000 135.929
61.65000 305.701
61.82000 241.121
61.99000 134.155
62.16000 126.029
62.33000 130.258
62.50000 127.413
62.67000 122.018
62.84000 138.034
63.01000 133.392
63.18000 130.573
63.35000 137.771
63.52000 134.873
63.69000 134.653
63.86000 150.854
64.03000 146.536
64.20000 141.830
64.37000 156.558
64.54000 179.565
64.71000 163.957
64.88000 194.909
65.05000 242.574
65.22000 309.248
65.39000 367.771
65.56000 433.146
65.73000 1055.929
65.90000 2455.370
66.07000 693.567
66.24000 411.909
66.41000 729.383
66.58000 480.786
66.75000 383.000
66.92000 391.345
67.09000 406.346
67.26000 423.073
67.43000 420.587
67.60000 461.524
67.77000 488.014
67.94000 501.585
68.11000 558.686
68.28000 607.739
68.45000 701.065
68.62000 948.140
68.79000 1774.009
68.96000 8443.357
69.13000 54935.371
69.30000 33767.516
69.47000 10514.940
69.64000 1103.353
69.81000 687.539
69.98000 542.619
70.00000 528.828

File: BTO_Mapping_Theta2Theta_08-10-2025_001_42_-5-000_-8-660.xy
20.00000 474.935
20.17000 465.806
20.34000 488.108
20.51000 486.487
20.68000 480.385
20.85000 463.476
21.02000 469.083
21.19000 469.845
21.36000 474.297
21.53000 451.473
21.70000 487.894
21.87000 501.092
22.04000 544.156
22.21000 515.724
22.38000 483.398
22.55000 449.707
22.72000 446.684
22.89000 423.658
23.06000 431.787
23.23000 428.531
23.40000 426.116
23.57000 426.764
23.74000 442.325
23.91000 498.559
24.08000 474.773
24.25000 449.898
24.42000 424.647
24.59000 414.928
24.76000 415.519
24.93000 408.262
25.10000 395.254
25.27000 395.061
25.44000 381.358
25.61000 412.193
25.78000 403.646
25.95000 387.135
26.12000 391.950
26.29000 377.118
26.46000 382.925
26.63000 383.892
26.80000 389.776
26.97000 375.013
27.14000 384.347
27.31000 368.146
27.48000 392.770
27.65000 389.138
27.82000 374.461
27.99000 354.137
28.16000 372.094
28.33000 363.528
28.50000 356.491
28.67000 351.638
28.84000 377.770
29.01000 359.101
29.18000 356.641
29.35000 350.261
29.52000 347.124
29.69000 356.903
29.86000 371.164
30.03000 388.716
30.20000 381.637
30.37000 358.628
30.54000 345.291
30.71000 358.866
30.88000 382.995
31.05000 509.142
31.22000 902.032
31.39000 1207.663
31.56000 760.132
31.73000 420.082
31.90000 378.607
32.07000 347.220
32.24000 319.711
32.41000 322.841
32.58000 314.332
32.75000 321.340
32.92000 303.456
33.09000 298.872
33.26000 311.559
33.43000 316.749
33.60000 295.164
33.77000 309.201
33.94000 325.578
34.11000 329.147
34.28000 344.940
34.45000 348.969
34.62000 320.630
34.79000 305.684
34.96000 284.327
35.13000 275.635
35.30000 258.848
35.47000 265.423
35.64000 262.278
35.81000 263.315
35.98000 259.884
36.15000 259.160
36.32000 255.771
36.49000 250.441
36.66000 257.032
36.83000 264.025
37.00000 290.018
37.17000 280.126
37.34000 265.776
37.51000 248.006
37.68000 237.919
37.85000 259.253
38.02000 270.188
38.19000 274.427
38.36000 369.798
38.53000 782.769
38.70000 1233.562
38.87000 840.303
39.04000 369.134
39.21000 256.851
39.38000 231.514
39.55000 225.435
39.72000 232.750
39.89000 233.329
40.06000 220.129
40.23000 221.019
40.40000 234.080
40.57000 212.399
40.74000 216.883
40.91000 224.446
41.08000 201.503
41.25000 203.706
41.42000 219.692
41.59000 206.642
41.76000 211.140
41.93000 203.136
42.10000 206.958
42.27000 201.186
42.44000 209.176
42.61000 211.179
42.78000 214.023
42.95000 194.080
43.12000 192.352
43.29000 196.165
43.46000 194.773
43.63000 201.208
43.80000 195.106
43.97000 196.576
44.14000 197.297
44.31000 197.253
44.48000 201.816
44.65000 223.212
44.82000 247.000
44.99000 260.449
45.16000 254.997
45.33000 231.712
45.50000 215.067
45.67000 205.087
45.84000 199.053
46.01000 173.031
46.18000 171.898
46.35000 180.511
46.52000 181.622
46.69000 173.288
46.86000 174.597
47.03000 172.764
47.20000 169.786
47.37000 163.659
47.54000 157.549
47.71000 155.762
47.88000 156.453
48.05000 151.357
48.22000 164.928
48.39000 155.955
48.56000 159.695
48.73000 152.916
48.90000 157.066
49.07000 155.327
49.24000 151.462
49.41000 159.410
49.58000 150.042
49.75000 153.634
49.92000 160.190
50.09000 153.443
50.26000 158.144
50.43000 172.521
50.60000 176.327
50.77000 187.414
50.94000 168.179
51.11000 159.338
51.28000 142.612
51.45000 139.328
51.62000 140.013
51.79000 146.764
51.96000 148.322
52.13000 143.159
52.30000 137.937
52.47000 138.780
52.64000 132.932
52.81000 148.914
52.98000 148.703
53.15000 151.545
53.32000 156.017
53.49000 158.646
53.66000 153.072
53.83000 150.053
54.00000 148.273
54.17000 145.269
54.34000 139.885
54.51000 143.428
54.68000 144.149
54.85000 138.533
55.02000 151.734
55.19000 156.957
55.36000 185.273
55.53000 266.081
55.70000 487.639
55.87000 703.153
56.04000 632.099
56.21000 347.540
56.38000 198.148
56.55000 158.391
56.72000 130.115
56.89000 131.825
57.06000 130.417
57.23000 140.984
57.40000 123.935
57.57000 125.205
57.74000 117.531
57.91000 126.350
58.08000 126.644
58.25000 121.292
58.42000 116.219
58.59000 107.734
58.76000 124.254
58.93000 114.832
59.10000 112.146
59.27000 116.954
59.44000 121.043
59.61000 115.559
59.78000 121.133
59.95000 109.900
60.12000 121.864
60.29000 121.755
60.46000 110.992
60.63000 117.196
60.80000 115.635
60.97000 111.078
61.14000 112.911
61.31000 118.607
61.48000 134.328
61.65000 284.425
61.82000 198.477
61.99000 121.186
62.16000 131.165
62.33000 126.466
62.50000 132.888
62.67000 136.012
62.84000 131.416
63.01000 133.202
63.18000 130.589
63.35000 129.827
63.52000 136.284
63.69000 136.798
63.86000 138.480
64.03000 140.689
64.20000 148.584
64.37000 161.599
64.54000 162.945
64.71000 173.842
64.88000 174.880
65.05000 199.393
65.22000 215.373
65.39000 252.630
65.56000 319.453
65.73000 952.352
65.90000 2016.811
66.07000 498.238
66.24000 374.371
66.41000 617.189
66.58000 412.999
66.75000 345.169
66.92000 360.750
67.09000 368.998
67.26000 390.091
67.43000 420.904
67.60000 423.072
67.77000 455.205
67.94000 491.121
68.11000 522.911
68.28000 551.542
68.45000 626.087
68.62000 873.983
68.79000 1593.591
68.96000 8356.559
69.13000 45328.691
69.30000 25424.389
69.47000 6854.138
69.64000 929.185
69.81000 639.813
69.98000 516.063
70.00000 507.240

File: BTO_Mapping_Theta2Theta_08-10-2025_001_43_-10-000_-17-321.xy
20.00000 473.658
20.17000 479.946
20.34000 485.349
20.51000 469.754
20.68000 466.975
20.85000 485.972
21.02000 482.586
21.19000 463.800
21.36000 476.185
21.53000 467.917
21.70000 478.531
21.87000 518.482
22.04000 573.805
22.21000 523.975
22.38000 466.043
22.55000 425.272
22.72000 440.019
22.89000 450.449
23.06000 423.581
23.23000 432.278
23.40000 432.582
23.57000 438.731
23.74000 447.353
23.91000 471.066
24.08000 464.662
24.25000 447.136
24.42000 418.314
24.59000 399.797
24.76000 426.314
24.93000 398.449
25.10000 401.227
25.27000 386.285
25.44000 391.101
25.61000 407.878
25.78000 389.628
25.95000 408.614
26.12000 381.777
26.29000 372.466
26.46000 395.572
26.63000 378.316
26.80000 377.292
26.97000 374.556
27.14000 379.899
27.31000 390.021
27.48000 366.517
27.65000 378.125
27.82000 377.890
27.99000 375.951
28.16000 353.503
28.33000 366.510
28.50000 353.440
28.67000 360.568
28.84000 368.456
29.01000 359.155
29.18000 334.818
29.35000 349.911
29.52000 359.146
29.69000 358.007
29.86000 396.994
30.03000 411.387
30.20000 384.136
30.37000 367.281
30.54000 375.098
30.71000 365.205
30.88000 400.855
31.05000 644.103
31.22000 1374.884
31.39000 1742.249
31.56000 901.036
31.73000 453.018
31.90000 371.245
32.07000 350.129
32.24000 336.374
32.41000 320.538
32.58000 311.947
32.75000 321.853
32.92000 318.845
33.09000 297.908
33.26000 309.715
33.43000 291.979
33.60000 299.253
33.77000 301.101
33.94000 310.934
34.11000 319.808
34.28000 331.784
34.45000 335.579
34.62000 318.293
34.79000 292.248
34.96000 276.925
35.13000 262.882
35.30000 273.557
35.47000 267.831
35.64000 267.395
35.81000 259.723
35.98000 250.908
36.15000 255.993
36.32000 256.830
36.49000 252.201
36.66000 258.041
36.83000 275.055
37.00000 293.976
37.17000 271.382
37.34000 257.102
37.51000 253.818
37.68000 247.656
37.85000 257.294
38.02000 267.952
38.19000 276.579
38.36000 402.666
38.53000 830.184
38.70000 1184.444
38.87000 782.060
39.04000 343.217
39.21000 249.230
39.38000 243.244
39.55000 241.765
39.72000 234.309
39.89000 241.198
40.06000 228.312
40.23000 223.113
40.40000 227.247
40.57000 209.275
40.74000 219.960
40.91000 198.482
41.08000 205.613
41.25000 211.023
41.42000 202.194
41.59000 214.256
41.76000 206.870
41.93000 208.141
42.10000 203.665
42.27000 207.605
42.44000 202.095
42.61000 211.736
42.78000 191.658
42.95000 196.046
43.12000 197.219
43.29000 199.979
43.46000 199.786
43.63000 190.344
43.80000 187.784
43.97000 199.039
44.14000 196.467
44.31000 195.047
44.48000 212.452
44.65000 229.114
44.82000 248.103
44.99000 286.093
45.16000 264.325
45.33000 221.021
45.50000 227.105
45.67000 194.469
45.84000 200.185
46.01000 179.560
46.18000 173.898
46.35000 186.604
46.52000 186.141
46.69000 177.408
46.86000 172.822
47.03000 170.467
47.20000 162.104
47.37000 162.137
47.54000 160.351
47.71000 163.182
47.88000 170.486
48.05000 152.819
48.22000 166.056
48.39000 165.120
48.56000 155.878
48.73000 161.547
48.90000 160.796
49.07000 163.574
49.24000 153.211
49.41000 160.060
49.58000 150.976
49.75000 159.276
49.92000 144.702
50.09000 154.251
50.26000 164.013
50.43000 192.926
50.60000 202.251
50.77000 187.130
50.94000 161.325
51.11000 153.562
51.28000 149.817
51.45000 131.274
51.62000 139.970
51.79000 143.113
51.96000 137.435
52.13000 149.686
52.30000 145.756
52.47000 138.482
52.64000 151.424
52.81000 139.986
52.98000 141.837
53.15000 148.720
53.32000 157.285
53.49000 152.059
53.66000 149.137
53.83000 142.409
54.00000 134.117
54.17000 143.126
54.34000 138.614
54.51000 161.964
54.68000 149.740
54.85000 155.049
55.02000 148.395
55.19000 165.435
55.36000 195.676
55.53000 313.845
55.70000 570.086
55.87000 712.669
56.04000 578.674
56.21000 322.716
56.38000 200.017
56.55000 150.658
56.72000 148.249
56.89000 133.220
57.06000 118.362
57.23000 129.752
57.40000 120.693
57.57000 126.416
57.74000 129.863
57.91000 121.514
58.08000 128.647
58.25000 118.715
58.42000 117.447
58.59000 127.895
58.76000 125.480
58.93000 115.174
59.10000 113.490
59.27000 112.361
59.44000 121.038
59.61000 127.478
59.78000 119.351
59.95000 115.530
60.12000 114.400
60.29000 120.749
60.46000 114.487
60.63000 114.682
60.80000 109.379
60.97000 121.860
61.14000 122.557
61.31000 124.969
61.48000 130.479
61.65000 289.033
61.82000 205.361
61.99000 129.193
62.16000 131.242
62.33000 120.877
62.50000 131.513
62.67000 131.318
62.84000 137.954
63.01000 125.409
63.18000 146.648
63.35000 134.832
63.52000 130.234
63.69000 142.168
63.86000 144.453
64.03000 136.838
64.20000 146.080
64.37000 140.603
64.54000 156.343
64.71000 164.814
64.88000 178.245
65.05000 215.397
65.22000 248.982
65.39000 284.477
65.56000 361.836
65.73000 1020.406
65.90000 2076.357
66.07000 562.308
66.24000 395.982
66.41000 648.588
66.58000 423.747
66.75000 363.202
66.92000 359.024
67.09000 379.344
67.26000 387.575
67.43000 427.719
67.60000 427.259
67.77000 471.377
67.94000 480.797
68.11000 509.872
68.28000 564.004
68.45000 656.151
68.62000 875.405
68.79000 1600.720
68.96000 8436.001
69.13000 47383.629
69.30000 26954.314
69.47000 7375.398
69.64000 943.208
69.81000 639.996
69.98000 529.083
70.00000 503.809