Folder: Master-Thesis/XRD/08-10-2025 Dep 7/XY Data (part 3)

File: BTO_Mapping_Theta2Theta_08-10-2025_001_27_-16-180_11-756.xy
20.00000 474.536
20.17000 475.601
20.34000 491.794
20.51000 480.508
20.68000 468.163
20.85000 449.150
21.02000 473.548
21.19000 474.219
21.36000 474.215
21.53000 449.127
21.70000 475.036
21.87000 499.712
22.04000 538.168
22.21000 540.183
22.38000 492.478
22.55000 461.365
22.72000 430.585
22.89000 436.849
23.06000 414.793
23.23000 439.257
23.40000 435.562
23.57000 432.191
23.74000 438.876
23.91000 462.567
24.08000 446.217
24.25000 432.214
24.42000 411.430
24.59000 381.805
24.76000 409.873
24.93000 415.713
25.10000 407.083
25.27000 393.745
25.44000 385.424
25.61000 394.025
25.78000 402.805
25.95000 385.316
26.12000 376.362
26.29000 373.707
26.46000 390.480
26.63000 388.051
26.80000 372.568
26.97000 353.502
27.14000 364.320
27.31000 380.724
27.48000 377.593
27.65000 357.707
27.82000 365.610
27.99000 356.253
28.16000 377.892
28.33000 364.009
28.50000 356.731
28.67000 351.501
28.84000 333.228
29.01000 358.321
29.18000 352.839
29.35000 362.358
29.52000 348.325
29.69000 364.433
29.86000 375.314
30.03000 401.544
30.20000 371.494
30.37000 360.042
30.54000 367.453
30.71000 362.963
30.88000 381.218
31.05000 523.485
31.22000 1054.932
31.39000 1489.095
31.56000 886.264
31.73000 460.321
31.90000 353.801
32.07000 353.414
32.24000 330.833
32.41000 310.862
32.58000 307.602
32.75000 306.950
32.92000 331.067
33.09000 310.130
33.26000 295.156
33.43000 312.228
33.60000 286.814
33.77000 299.453
33.94000 293.059
34.11000 327.147
34.28000 326.174
34.45000 329.406
34.62000 312.162
34.79000 288.612
34.96000 281.626
35.13000 269.006
35.30000 270.868
35.47000 267.657
35.64000 271.067
35.81000 274.169
35.98000 272.432
36.15000 265.873
36.32000 256.958
36.49000 257.122
36.66000 252.537
36.83000 278.403
37.00000 292.809
37.17000 274.379
37.34000 274.513
37.51000 260.745
37.68000 267.229
37.85000 253.233
38.02000 265.808
38.19000 261.595
38.36000 337.457
38.53000 713.908
38.70000 1161.605
38.87000 829.700
39.04000 355.909
39.21000 250.926
39.38000 240.617
39.55000 243.874
39.72000 234.309
39.89000 235.326
40.06000 220.174
40.23000 207.742
40.40000 226.596
40.57000 208.540
40.74000 210.363
40.91000 219.623
41.08000 203.843
41.25000 207.279
41.42000 204.439
41.59000 211.808
41.76000 208.287
41.93000 213.351
42.10000 216.690
42.27000 221.156
42.44000 195.501
42.61000 208.159
42.78000 196.428
42.95000 193.279
43.12000 202.555
43.29000 205.607
43.46000 198.449
43.63000 199.537
43.80000 189.869
43.97000 195.747
44.14000 196.975
44.31000 201.925
44.48000 201.857
44.65000 214.815
44.82000 231.868
44.99000 257.492
45.16000 265.827
45.33000 232.999
45.50000 222.802
45.67000 205.734
45.84000 190.382
46.01000 186.127
46.18000 176.792
46.35000 180.338
46.52000 171.055
46.69000 169.379
46.86000 184.779
47.03000 169.915
47.20000 169.915
47.37000 170.836
47.54000 164.973
47.71000 158.787
47.88000 160.898
48.05000 146.041
48.22000 168.556
48.39000 154.861
48.56000 154.648
48.73000 155.094
48.90000 154.053
49.07000 154.544
49.24000 158.934
49.41000 144.804
49.58000 156.299
49.75000 141.142
49.92000 150.338
50.09000 149.168
50.26000 149.761
50.43000 167.195
50.60000 188.569
50.77000 179.552
50.94000 160.486
51.11000 154.177
51.28000 160.947
51.45000 150.176
51.62000 153.889
51.79000 150.615
51.96000 142.648
52.13000 144.757
52.30000 137.968
52.47000 130.929
52.64000 138.703
52.81000 134.467
52.98000 143.066
53.15000 149.972
53.32000 159.505
53.49000 149.840
53.66000 148.735
53.83000 139.511
54.00000 142.075
54.17000 124.909
54.34000 143.001
54.51000 129.374
54.68000 148.318
54.85000 138.305
55.02000 153.190
55.19000 150.143
55.36000 164.309
55.53000 247.303
55.70000 452.730
55.87000 691.043
56.04000 604.445
56.21000 344.777
56.38000 203.621
56.55000 153.460
56.72000 138.299
56.89000 131.466
57.06000 128.588
57.23000 126.832
57.40000 121.982
57.57000 119.632
57.74000 123.690
57.91000 114.080
58.08000 119.217
58.25000 112.033
58.42000 115.597
58.59000 113.906
58.76000 128.053
58.93000 115.283
59.10000 123.731
59.27000 121.349
59.44000 115.794
59.61000 109.083
59.78000 124.091
59.95000 111.986
60.12000 122.965
60.29000 126.598
60.46000 109.769
60.63000 118.232
60.80000 122.380
60.97000 120.028
61.14000 134.886
61.31000 127.694
61.48000 135.164
61.65000 293.251
61.82000 218.965
61.99000 133.911
62.16000 130.662
62.33000 130.741
62.50000 117.722
62.67000 123.850
62.84000 122.101
63.01000 134.206
63.18000 136.201
63.35000 125.634
63.52000 131.393
63.69000 137.067
63.86000 134.965
64.03000 143.578
64.20000 149.978
64.37000 145.413
64.54000 156.036
64.71000 160.003
64.88000 170.697
65.05000 205.173
65.22000 227.109
65.39000 267.423
65.56000 333.715
65.73000 910.805
65.90000 2054.917
66.07000 578.029
66.24000 392.685
66.41000 634.048
66.58000 442.620
66.75000 330.599
66.92000 364.838
67.09000 380.660
67.26000 402.357
67.43000 396.014
67.60000 452.141
67.77000 477.263
67.94000 504.469
68.11000 525.330
68.28000 551.064
68.45000 640.577
68.62000 857.966
68.79000 1525.455
68.96000 6711.361
69.13000 45771.488
69.30000 27589.814
69.47000 8426.748
69.64000 970.407
69.81000 637.265
69.98000 541.903
70.00000 532.396

File: BTO_Mapping_Theta2Theta_08-10-2025_001_28_-24-271_17-634.xy
20.00000 508.380
20.17000 455.642
20.34000 468.947
20.51000 463.460
20.68000 470.176
20.85000 472.250
21.02000 469.913
21.19000 465.706
21.36000 452.158
21.53000 454.852
21.70000 468.947
21.87000 512.033
22.04000 565.446
22.21000 533.244
22.38000 493.509
22.55000 447.673
22.72000 420.288
22.89000 435.805
23.06000 423.592
23.23000 408.412
23.40000 426.130
23.57000 422.006
23.74000 443.339
23.91000 448.492
24.08000 454.120
24.25000 422.564
24.42000 432.185
24.59000 392.165
24.76000 413.543
24.93000 404.150
25.10000 397.451
25.27000 405.504
25.44000 394.502
25.61000 383.531
25.78000 390.092
25.95000 369.040
26.12000 371.694
26.29000 373.306
26.46000 384.486
26.63000 385.411
26.80000 383.161
26.97000 367.414
27.14000 378.992
27.31000 350.967
27.48000 369.844
27.65000 382.694
27.82000 373.110
27.99000 371.427
28.16000 354.292
28.33000 346.431
28.50000 356.481
28.67000 364.474
28.84000 356.169
29.01000 367.922
29.18000 359.284
29.35000 348.169
29.52000 345.485
29.69000 364.264
29.86000 387.839
30.03000 393.160
30.20000 407.325
30.37000 360.487
30.54000 370.774
30.71000 377.122
30.88000 392.002
31.05000 544.371
31.22000 1242.408
31.39000 1866.556
31.56000 1124.878
31.73000 471.687
31.90000 364.644
32.07000 348.341
32.24000 334.992
32.41000 330.692
32.58000 316.718
32.75000 304.939
32.92000 333.377
33.09000 306.352
33.26000 297.563
33.43000 295.921
33.60000 303.459
33.77000 297.984
33.94000 305.049
34.11000 325.831
34.28000 341.524
34.45000 338.822
34.62000 311.883
34.79000 314.203
34.96000 282.810
35.13000 266.529
35.30000 254.341
35.47000 269.210
35.64000 274.425
35.81000 263.849
35.98000 263.468
36.15000 263.107
36.32000 258.419
36.49000 263.971
36.66000 259.158
36.83000 267.028
37.00000 266.354
37.17000 264.499
37.34000 255.834
37.51000 257.040
37.68000 266.025
37.85000 263.195
38.02000 246.370
38.19000 266.984
38.36000 350.965
38.53000 684.173
38.70000 1017.738
38.87000 763.710
39.04000 353.906
39.21000 266.534
39.38000 235.281
39.55000 223.702
39.72000 233.454
39.89000 237.725
40.06000 233.445
40.23000 220.992
40.40000 216.986
40.57000 210.320
40.74000 218.599
40.91000 210.779
41.08000 217.021
41.25000 214.029
41.42000 207.038
41.59000 208.977
41.76000 197.228
41.93000 210.337
42.10000 190.774
42.27000 214.671
42.44000 196.102
42.61000 194.731
42.78000 193.442
42.95000 192.964
43.12000 200.457
43.29000 201.100
43.46000 193.732
43.63000 190.054
43.80000 185.122
43.97000 195.622
44.14000 184.297
44.31000 191.787
44.48000 195.971
44.65000 213.051
44.82000 239.053
44.99000 269.233
45.16000 266.037
45.33000 251.724
45.50000 231.024
45.67000 211.977
45.84000 199.363
46.01000 179.233
46.18000 175.346
46.35000 175.126
46.52000 176.479
46.69000 170.401
46.86000 168.530
47.03000 174.399
47.20000 166.395
47.37000 167.740
47.54000 167.326
47.71000 163.297
47.88000 164.373
48.05000 156.604
48.22000 162.800
48.39000 170.690
48.56000 157.903
48.73000 162.231
48.90000 159.372
49.07000 158.118
49.24000 161.568
49.41000 147.684
49.58000 154.351
49.75000 153.214
49.92000 148.768
50.09000 149.577
50.26000 171.689
50.43000 172.826
50.60000 202.059
50.77000 199.123
50.94000 178.198
51.11000 150.026
51.28000 149.044
51.45000 143.302
51.62000 136.082
51.79000 137.580
51.96000 152.677
52.13000 129.220
52.30000 137.156
52.47000 141.048
52.64000 139.637
52.81000 145.062
52.98000 141.970
53.15000 143.735
53.32000 158.240
53.49000 155.092
53.66000 146.211
53.83000 138.582
54.00000 149.914
54.17000 142.346
54.34000 141.964
54.51000 146.222
54.68000 140.034
54.85000 151.566
55.02000 147.487
55.19000 154.665
55.36000 181.925
55.53000 267.047
55.70000 475.546
55.87000 681.446
56.04000 604.234
56.21000 345.815
56.38000 202.572
56.55000 152.567
56.72000 135.134
56.89000 142.651
57.06000 129.654
57.23000 132.343
57.40000 135.875
57.57000 127.930
57.74000 115.134
57.91000 122.753
58.08000 117.330
58.25000 128.968
58.42000 120.055
58.59000 127.688
58.76000 122.989
58.93000 112.261
59.10000 115.212
59.27000 118.384
59.44000 117.106
59.61000 116.986
59.78000 114.467
59.95000 124.281
60.12000 127.513
60.29000 113.725
60.46000 122.622
60.63000 118.493
60.80000 117.745
60.97000 114.472
61.14000 127.194
61.31000 126.260
61.48000 138.695
61.65000 282.133
61.82000 249.779
61.99000 131.895
62.16000 123.802
62.33000 125.533
62.50000 135.923
62.67000 121.612
62.84000 133.150
63.01000 140.232
63.18000 129.958
63.35000 137.286
63.52000 135.623
63.69000 140.295
63.86000 146.449
64.03000 137.218
64.20000 152.843
64.37000 143.650
64.54000 160.721
64.71000 158.864
64.88000 183.128
65.05000 200.934
65.22000 244.965
65.39000 296.833
65.56000 375.429
65.73000 815.149
65.90000 2133.084
66.07000 624.569
66.24000 373.784
66.41000 661.193
66.58000 460.353
66.75000 354.921
66.92000 347.120
67.09000 385.768
67.26000 401.368
67.43000 428.259
67.60000 433.753
67.77000 449.635
67.94000 477.316
68.11000 520.359
68.28000 571.596
68.45000 647.308
68.62000 858.077
68.79000 1563.630
68.96000 5857.284
69.13000 46628.781
69.30000 30166.449
69.47000 9985.360
69.64000 1034.293
69.81000 666.880
69.98000 534.490
70.00000 522.469

File: BTO_Mapping_Theta2Theta_08-10-2025_001_30_-9-781_2-079.xy
20.00000 474.110
20.17000 482.386
20.34000 480.959
20.51000 454.762
20.68000 471.763
20.85000 462.133
21.02000 467.933
21.19000 464.274
21.36000 446.434
21.53000 468.581
21.70000 467.984
21.87000 489.067
22.04000 537.076
22.21000 519.772
22.38000 487.581
22.55000 455.726
22.72000 471.162
22.89000 412.696
23.06000 429.077
23.23000 439.944
23.40000 437.513
23.57000 427.370
23.74000 449.030
23.91000 461.263
24.08000 451.979
24.25000 434.400
24.42000 434.222
24.59000 417.313
24.76000 414.237
24.93000 391.235
25.10000 406.125
25.27000 405.823
25.44000 385.738
25.61000 385.253
25.78000 386.083
25.95000 379.880
26.12000 374.709
26.29000 398.801
26.46000 385.285
26.63000 378.582
26.80000 384.701
26.97000 362.975
27.14000 351.134
27.31000 373.689
27.48000 380.856
27.65000 376.267
27.82000 356.820
27.99000 375.395
28.16000 369.512
28.33000 357.979
28.50000 357.136
28.67000 343.754
28.84000 365.377
29.01000 342.557
29.18000 361.198
29.35000 341.844
29.52000 357.280
29.69000 359.951
29.86000 368.939
30.03000 385.734
30.20000 383.127
30.37000 356.142
30.54000 348.657
30.71000 361.165
30.88000 388.564
31.05000 527.344
31.22000 1012.155
31.39000 1367.481
31.56000 793.100
31.73000 437.524
31.90000 350.983
32.07000 328.425
32.24000 322.977
32.41000 325.675
32.58000 325.769
32.75000 313.434
32.92000 329.746
33.09000 308.655
33.26000 288.875
33.43000 297.348
33.60000 304.464
33.77000 306.534
33.94000 301.429
34.11000 330.696
34.28000 346.850
34.45000 332.423
34.62000 321.996
34.79000 277.528
34.96000 284.348
35.13000 278.411
35.30000 270.035
35.47000 274.043
35.64000 272.530
35.81000 260.839
35.98000 277.221
36.15000 265.031
36.32000 261.490
36.49000 254.867
36.66000 264.354
36.83000 276.015
37.00000 296.113
37.17000 272.196
37.34000 261.805
37.51000 262.252
37.68000 252.253
37.85000 251.379
38.02000 266.964
38.19000 272.720
38.36000 358.967
38.53000 781.131
38.70000 1200.556
38.87000 844.932
39.04000 352.752
39.21000 257.499
39.38000 229.666
39.55000 250.012
39.72000 227.865
39.89000 237.565
40.06000 224.460
40.23000 233.454
40.40000 209.527
40.57000 234.116
40.74000 210.781
40.91000 224.553
41.08000 222.088
41.25000 206.143
41.42000 214.247
41.59000 210.103
41.76000 221.168
41.93000 200.396
42.10000 204.433
42.27000 210.029
42.44000 212.854
42.61000 200.874
42.78000 208.436
42.95000 199.067
43.12000 208.558
43.29000 200.401
43.46000 196.229
43.63000 193.156
43.80000 197.872
43.97000 190.698
44.14000 195.082
44.31000 191.667
44.48000 205.076
44.65000 220.688
44.82000 236.272
44.99000 260.827
45.16000 259.929
45.33000 243.850
45.50000 216.949
45.67000 202.898
45.84000 193.034
46.01000 180.355
46.18000 187.003
46.35000 177.734
46.52000 187.368
46.69000 177.457
46.86000 164.947
47.03000 176.998
47.20000 177.113
47.37000 171.726
47.54000 163.383
47.71000 159.489
47.88000 151.247
48.05000 157.124
48.22000 165.757
48.39000 156.045
48.56000 158.704
48.73000 165.590
48.90000 154.703
49.07000 160.019
49.24000 160.167
49.41000 155.470
49.58000 156.042
49.75000 151.251
49.92000 156.570
50.09000 151.850
50.26000 163.336
50.43000 169.485
50.60000 187.270
50.77000 185.376
50.94000 166.589
51.11000 161.294
51.28000 135.206
51.45000 148.442
51.62000 138.289
51.79000 144.861
51.96000 146.941
52.13000 144.310
52.30000 145.193
52.47000 142.183
52.64000 136.952
52.81000 151.722
52.98000 145.063
53.15000 154.294
53.32000 162.423
53.49000 157.282
53.66000 147.430
53.83000 142.590
54.00000 152.138
54.17000 145.103
54.34000 126.301
54.51000 141.753
54.68000 141.214
54.85000 145.016
55.02000 147.255
55.19000 158.729
55.36000 188.219
55.53000 265.718
55.70000 480.980
55.87000 708.342
56.04000 625.074
56.21000 354.015
56.38000 217.266
56.55000 148.540
56.72000 144.867
56.89000 129.010
57.06000 136.879
57.23000 138.015
57.40000 129.318
57.57000 119.905
57.74000 130.282
57.91000 122.954
58.08000 128.516
58.25000 126.691
58.42000 119.343
58.59000 112.916
58.76000 120.928
58.93000 113.110
59.10000 127.418
59.27000 116.289
59.44000 113.588
59.61000 120.346
59.78000 116.866
59.95000 123.911
60.12000 107.237
60.29000 111.947
60.46000 121.102
60.63000 119.559
60.80000 119.042
60.97000 120.357
61.14000 113.598
61.31000 123.661
61.48000 122.623
61.65000 292.953
61.82000 211.762
61.99000 128.307
62.16000 132.450
62.33000 127.219
62.50000 134.643
62.67000 124.910
62.84000 128.124
63.01000 134.355
63.18000 125.435
63.35000 127.043
63.52000 130.998
63.69000 135.594
63.86000 142.266
64.03000 138.340
64.20000 138.668
64.37000 144.932
64.54000 153.777
64.71000 163.669
64.88000 178.074
65.05000 195.094
65.22000 222.998
65.39000 275.496
65.56000 311.761
65.73000 922.097
65.90000 2005.485
66.07000 531.472
66.24000 378.859
66.41000 636.032
66.58000 425.695
66.75000 366.403
66.92000 357.802
67.09000 386.366
67.26000 378.450
67.43000 412.024
67.60000 442.595
67.77000 443.722
67.94000 498.506
68.11000 521.228
68.28000 550.927
68.45000 653.222
68.62000 902.523
68.79000 1594.999
68.96000 7636.921
69.13000 45597.953
69.30000 26507.498
69.47000 7608.873
69.64000 974.706
69.81000 625.622
69.98000 518.003
70.00000 508.355

File: BTO_Mapping_Theta2Theta_08-10-2025_001_34_-9-781_-2-079.xy
20.00000 455.225
20.17000 482.636
20.34000 456.807
20.51000 462.278
20.68000 464.419
20.85000 457.513
21.02000 462.948
21.19000 469.440
21.36000 440.152
21.53000 461.512
21.70000 466.793
21.87000 507.014
22.04000 538.213
22.21000 517.751
22.38000 481.572
22.55000 459.978
22.72000 438.571
22.89000 447.350
23.06000 416.989
23.23000 437.249
23.40000 438.873
23.57000 435.887
23.74000 456.163
23.91000 465.357
24.08000 462.085
24.25000 444.673
24.42000 439.372
24.59000 431.615
24.76000 413.899
24.93000 409.686
25.10000 408.583
25.27000 393.471
25.44000 390.081
25.61000 399.226
25.78000 402.390
25.95000 383.828
26.12000 396.368
26.29000 397.552
26.46000 388.031
26.63000 375.524
26.80000 385.973
26.97000 383.134
27.14000 371.617
27.31000 386.739
27.48000 373.823
27.65000 361.102
27.82000 380.995
27.99000 368.812
28.16000 366.209
28.33000 369.025
28.50000 368.624
28.67000 332.726
28.84000 365.697
29.01000 367.881
29.18000 362.485
29.35000 348.124
29.52000 354.361
29.69000 353.792
29.86000 373.205
30.03000 391.632
30.20000 382.027
30.37000 356.371
30.54000 349.379
30.71000 355.464
30.88000 379.265
31.05000 532.466
31.22000 1093.463
31.39000 1451.464
31.56000 831.120
31.73000 425.804
31.90000 370.223
32.07000 358.897
32.24000 333.957
32.41000 327.638
32.58000 321.906
32.75000 313.493
32.92000 306.532
33.09000 300.531
33.26000 303.124
33.43000 292.006
33.60000 298.706
33.77000 293.093
33.94000 302.373
34.11000 328.637
34.28000 333.588
34.45000 342.646
34.62000 328.151
34.79000 305.956
34.96000 280.364
35.13000 274.714
35.30000 281.881
35.47000 254.305
35.64000 249.742
35.81000 264.604
35.98000 263.410
36.15000 256.075
36.32000 254.975
36.49000 254.975
36.66000 268.837
36.83000 272.884
37.00000 293.569
37.17000 276.834
37.34000 265.631
37.51000 255.056
37.68000 266.752
37.85000 243.805
38.02000 254.699
38.19000 271.655
38.36000 374.362
38.53000 775.484
38.70000 1228.237
38.87000 846.002
39.04000 353.126
39.21000 236.058
39.38000 225.366
39.55000 240.605
39.72000 231.336
39.89000 234.931
40.06000 210.001
40.23000 215.185
40.40000 218.977
40.57000 224.163
40.74000 223.818
40.91000 204.521
41.08000 194.406
41.25000 202.567
41.42000 212.566
41.59000 210.469
41.76000 208.334
41.93000 223.314
42.10000 217.275
42.27000 213.045
42.44000 211.347
42.61000 193.291
42.78000 198.303
42.95000 194.101
43.12000 195.437
43.29000 196.490
43.46000 196.337
43.63000 189.319
43.80000 194.351
43.97000 192.773
44.14000 195.728
44.31000 196.855
44.48000 212.539
44.65000 222.202
44.82000 247.768
44.99000 261.709
45.16000 257.467
45.33000 238.245
45.50000 224.678
45.67000 219.219
45.84000 190.215
46.01000 181.341
46.18000 179.005
46.35000 176.846
46.52000 182.041
46.69000 178.302
46.86000 165.849
47.03000 180.337
47.20000 157.022
47.37000 163.122
47.54000 163.199
47.71000 159.194
47.88000 157.217
48.05000 168.783
48.22000 161.571
48.39000 182.590
48.56000 162.327
48.73000 166.797
48.90000 156.424
49.07000 148.399
49.24000 151.379
49.41000 153.833
49.58000 150.793
49.75000 145.964
49.92000 154.269
50.09000 156.186
50.26000 163.299
50.43000 176.037
50.60000 189.578
50.77000 185.773
50.94000 161.024
51.11000 148.945
51.28000 151.283
51.45000 138.473
51.62000 144.637
51.79000 140.260
51.96000 136.956
52.13000 141.937
52.30000 142.047
52.47000 142.275
52.64000 138.788
52.81000 142.972
52.98000 145.740
53.15000 141.990
53.32000 169.095
53.49000 151.917
53.66000 148.957
53.83000 143.025
54.00000 148.710
54.17000 146.253
54.34000 128.468
54.51000 144.837
54.68000 147.812
54.85000 140.999
55.02000 148.391
55.19000 155.300
55.36000 175.313
55.53000 288.266
55.70000 487.285
55.87000 700.523
56.04000 574.123
56.21000 359.627
56.38000 199.349
56.55000 152.758
56.72000 135.751
56.89000 134.057
57.06000 120.878
57.23000 125.378
57.40000 127.509
57.57000 120.161
57.74000 120.557
57.91000 123.081
58.08000 130.174
58.25000 130.611
58.42000 121.755
58.59000 108.980
58.76000 119.536
58.93000 120.209
59.10000 108.050
59.27000 115.134
59.44000 115.195
59.61000 114.070
59.78000 120.124
59.95000 112.186
60.12000 114.102
60.29000 119.964
60.46000 118.562
60.63000 114.378
60.80000 108.196
60.97000 114.988
61.14000 133.616
61.31000 130.169
61.48000 140.906
61.65000 284.036
61.82000 208.233
61.99000 134.270
62.16000 119.643
62.33000 129.646
62.50000 133.136
62.67000 136.286
62.84000 130.768
63.01000 134.988
63.18000 117.697
63.35000 134.019
63.52000 138.295
63.69000 139.973
63.86000 138.056
64.03000 150.641
64.20000 143.982
64.37000 150.242
64.54000 158.257
64.71000 167.461
64.88000 172.584
65.05000 197.400
65.22000 230.150
65.39000 273.859
65.56000 333.736
65.73000 930.332
65.90000 2077.583
66.07000 560.053
66.24000 391.967
66.41000 648.212
66.58000 420.864
66.75000 355.729
66.92000 356.928
67.09000 388.354
67.26000 378.748
67.43000 427.148
67.60000 433.833
67.77000 441.110
67.94000 474.379
68.11000 493.585
68.28000 574.630
68.45000 647.568
68.62000 869.266
68.79000 1617.356
68.96000 7761.227
69.13000 46193.238
69.30000 26594.246
69.47000 7512.983
69.64000 994.231
69.81000 634.030
69.98000 537.046
70.00000 513.202

File: BTO_Mapping_Theta2Theta_08-10-2025_001_35_-19-563_-4-158.xy
20.00000 489.484
20.17000 472.326
20.34000 481.286
20.51000 457.822
20.68000 469.939
20.85000 474.506
21.02000 477.042
21.19000 464.926
21.36000 445.634
21.53000 467.499
21.70000 491.564
21.87000 539.108
22.04000 615.670
22.21000 562.419
22.38000 486.030
22.55000 473.790
22.72000 444.303
22.89000 440.573
23.06000 414.162
23.23000 436.182
23.40000 425.873
23.57000 440.428
23.74000 429.351
23.91000 445.087
24.08000 452.308
24.25000 427.446
24.42000 412.375
24.59000 425.835
24.76000 409.328
24.93000 393.769
25.10000 407.491
25.27000 404.201
25.44000 404.803
25.61000 400.124
25.78000 397.645
25.95000 387.218
26.12000 389.524
26.29000 385.309
26.46000 383.227
26.63000 374.161
26.80000 371.266
26.97000 370.979
27.14000 357.732
27.31000 374.248
27.48000 381.865
27.65000 370.052
27.82000 375.898
27.99000 373.448
28.16000 374.498
28.33000 359.864
28.50000 368.096
28.67000 359.313
28.84000 356.296
29.01000 381.225
29.18000 358.471
29.35000 347.074
29.52000 356.151
29.69000 364.962
29.86000 410.767
30.03000 420.573
30.20000 411.928
30.37000 366.505
30.54000 388.351
30.71000 381.684
30.88000 423.006
31.05000 738.339
31.22000 1815.015
31.39000 2478.892
31.56000 1251.010
31.73000 513.852
31.90000 382.284
32.07000 332.055
32.24000 343.229
32.41000 331.029
32.58000 321.207
32.75000 320.161
32.92000 326.711
33.09000 305.532
33.26000 296.206
33.43000 303.980
33.60000 298.475
33.77000 286.736
33.94000 306.748
34.11000 309.491
34.28000 321.690
34.45000 311.741
34.62000 299.870
34.79000 288.387
34.96000 285.290
35.13000 277.423
35.30000 263.168
35.47000 259.819
35.64000 270.575
35.81000 262.715
35.98000 249.556
36.15000 265.485
36.32000 270.541
36.49000 260.949
36.66000 251.805
36.83000 285.571
37.00000 282.984
37.17000 271.596
37.34000 251.463
37.51000 269.960
37.68000 250.312
37.85000 252.064
38.02000 258.601
38.19000 285.144
38.36000 367.828
38.53000 642.003
38.70000 845.225
38.87000 584.371
39.04000 308.038
39.21000 245.821
39.38000 242.460
39.55000 229.456
39.72000 225.646
39.89000 226.461
40.06000 235.227
40.23000 228.579
40.40000 210.038
40.57000 212.279
40.74000 229.811
40.91000 216.146
41.08000 213.472
41.25000 223.068
41.42000 215.487
41.59000 203.589
41.76000 203.021
41.93000 212.266
42.10000 208.234
42.27000 200.527
42.44000 199.120
42.61000 210.188
42.78000 203.185
42.95000 199.277
43.12000 209.777
43.29000 187.263
43.46000 210.991
43.63000 195.134
43.80000 202.710
43.97000 190.337
44.14000 201.535
44.31000 198.091
44.48000 206.235
44.65000 243.483
44.82000 280.096
44.99000 326.273
45.16000 297.413
45.33000 251.012
45.50000 219.701
45.67000 207.905
45.84000 194.371
46.01000 184.001
46.18000 181.432
46.35000 180.137
46.52000 165.108
46.69000 170.831
46.86000 167.059
47.03000 175.724
47.20000 162.258
47.37000 161.104
47.54000 151.303
47.71000 167.276
47.88000 159.690
48.05000 161.603
48.22000 162.971
48.39000 155.751
48.56000 164.815
48.73000 166.015
48.90000 152.379
49.07000 156.134
49.24000 159.808
49.41000 158.574
49.58000 151.153
49.75000 150.309
49.92000 154.513
50.09000 160.461
50.26000 172.351
50.43000 198.876
50.60000 224.476
50.77000 208.542
50.94000 180.273
51.11000 166.098
51.28000 151.310
51.45000 157.175
51.62000 143.833
51.79000 138.540
51.96000 135.790
52.13000 145.543
52.30000 145.463
52.47000 139.308
52.64000 149.082
52.81000 147.086
52.98000 145.467
53.15000 154.977
53.32000 162.678
53.49000 150.174
53.66000 143.475
53.83000 144.126
54.00000 135.636
54.17000 138.884
54.34000 141.237
54.51000 142.690
54.68000 142.545
54.85000 150.410
55.02000 151.651
55.19000 153.404
55.36000 216.458
55.53000 333.468
55.70000 569.993
55.87000 710.985
56.04000 520.208
56.21000 297.804
56.38000 186.370
56.55000 151.345
56.72000 143.124
56.89000 131.273
57.06000 132.862
57.23000 114.375
57.40000 137.382
57.57000 130.890
57.74000 119.842
57.91000 125.128
58.08000 122.164
58.25000 117.780
58.42000 129.717
58.59000 130.440
58.76000 120.167
58.93000 117.971
59.10000 112.809
59.27000 128.831
59.44000 120.140
59.61000 118.737
59.78000 123.719
59.95000 123.060
60.12000 116.501
60.29000 105.935
60.46000 116.298
60.63000 117.939
60.80000 120.937
60.97000 111.255
61.14000 118.959
61.31000 117.962
61.48000 128.013
61.65000 292.340
61.82000 233.178
61.99000 128.355
62.16000 122.515
62.33000 124.292
62.50000 131.856
62.67000 127.458
62.84000 131.185
63.01000 135.166
63.18000 132.238
63.35000 132.377
63.52000 138.800
63.69000 132.243
63.86000 143.334
64.03000 148.365
64.20000 148.826
64.37000 168.791
64.54000 166.168
64.71000 180.550
64.88000 194.441
65.05000 222.474
65.22000 270.703
65.39000 339.026
65.56000 399.270
65.73000 997.643
65.90000 2279.120
66.07000 641.750
66.24000 401.422
66.41000 685.450
66.58000 449.750
66.75000 365.868
66.92000 371.974
67.09000 390.356
67.26000 424.154
67.43000 431.566
67.60000 450.629
67.77000 473.888
67.94000 504.749
68.11000 518.183
68.28000 566.163
68.45000 647.992
68.62000 907.641
68.79000 1680.907
68.96000 7440.926
69.13000 49713.699
69.30000 30298.525
69.47000 9166.272
69.64000 1037.435
69.81000 647.263
69.98000 521.650
70.00000 493.406