Folder: Master-Thesis/XRD/08-10-2025 Dep 7/XY Data (part 7)

File: BTO_Mapping_Theta2Theta_08-10-2025_001_61_36-542_-16-269.xy
20.00000 479.283
20.17000 487.012
20.34000 467.213
20.51000 468.793
20.68000 471.459
20.85000 477.509
21.02000 470.866
21.19000 497.494
21.36000 460.569
21.53000 477.404
21.70000 479.454
21.87000 475.924
22.04000 504.709
22.21000 493.004
22.38000 464.578
22.55000 461.122
22.72000 455.863
22.89000 466.958
23.06000 449.369
23.23000 427.238
23.40000 450.469
23.57000 447.755
23.74000 500.471
23.91000 535.903
24.08000 539.067
24.25000 476.687
24.42000 460.082
24.59000 433.024
24.76000 413.937
24.93000 411.745
25.10000 414.078
25.27000 415.156
25.44000 413.793
25.61000 401.850
25.78000 407.852
25.95000 401.854
26.12000 409.222
26.29000 406.774
26.46000 390.289
26.63000 385.971
26.80000 395.272
26.97000 388.234
27.14000 388.063
27.31000 392.666
27.48000 367.012
27.65000 377.946
27.82000 391.932
27.99000 375.247
28.16000 380.756
28.33000 361.222
28.50000 377.753
28.67000 359.158
28.84000 383.358
29.01000 366.875
29.18000 370.738
29.35000 371.662
29.52000 361.227
29.69000 357.544
29.86000 384.494
30.03000 395.022
30.20000 399.755
30.37000 388.346
30.54000 381.414
30.71000 395.407
30.88000 433.487
31.05000 564.444
31.22000 879.094
31.39000 1019.870
31.56000 714.666
31.73000 475.423
31.90000 395.149
32.07000 363.560
32.24000 361.161
32.41000 343.619
32.58000 335.526
32.75000 328.473
32.92000 311.761
33.09000 318.532
33.26000 291.151
33.43000 305.959
33.60000 298.378
33.77000 306.353
33.94000 316.608
34.11000 321.601
34.28000 336.196
34.45000 315.275
34.62000 306.177
34.79000 295.793
34.96000 269.969
35.13000 284.746
35.30000 272.659
35.47000 257.726
35.64000 273.713
35.81000 256.464
35.98000 252.465
36.15000 257.837
36.32000 280.350
36.49000 280.706
36.66000 251.668
36.83000 265.634
37.00000 266.454
37.17000 266.779
37.34000 260.841
37.51000 245.591
37.68000 247.150
37.85000 251.564
38.02000 268.104
38.19000 268.599
38.36000 336.900
38.53000 520.547
38.70000 654.286
38.87000 426.820
39.04000 284.410
39.21000 263.167
39.38000 224.147
39.55000 242.636
39.72000 244.596
39.89000 229.922
40.06000 235.652
40.23000 230.648
40.40000 220.945
40.57000 236.132
40.74000 228.549
40.91000 227.561
41.08000 221.563
41.25000 217.765
41.42000 201.069
41.59000 212.010
41.76000 212.372
41.93000 212.612
42.10000 225.573
42.27000 225.511
42.44000 223.726
42.61000 216.989
42.78000 220.310
42.95000 212.252
43.12000 198.027
43.29000 193.771
43.46000 197.446
43.63000 202.653
43.80000 203.239
43.97000 186.531
44.14000 197.750
44.31000 203.305
44.48000 209.364
44.65000 213.134
44.82000 239.468
44.99000 229.452
45.16000 216.779
45.33000 219.642
45.50000 196.259
45.67000 186.875
45.84000 193.369
46.01000 194.512
46.18000 182.129
46.35000 184.486
46.52000 185.067
46.69000 188.502
46.86000 160.970
47.03000 173.768
47.20000 169.178
47.37000 165.741
47.54000 161.055
47.71000 162.263
47.88000 154.497
48.05000 153.193
48.22000 163.956
48.39000 170.925
48.56000 163.700
48.73000 151.144
48.90000 171.751
49.07000 159.539
49.24000 168.875
49.41000 164.991
49.58000 161.545
49.75000 167.624
49.92000 149.645
50.09000 158.272
50.26000 163.508
50.43000 164.325
50.60000 173.871
50.77000 174.277
50.94000 158.868
51.11000 152.808
51.28000 149.504
51.45000 139.036
51.62000 150.404
51.79000 143.982
51.96000 145.242
52.13000 145.706
52.30000 144.482
52.47000 148.992
52.64000 135.161
52.81000 140.799
52.98000 144.788
53.15000 148.411
53.32000 149.307
53.49000 152.924
53.66000 136.157
53.83000 140.702
54.00000 144.070
54.17000 142.085
54.34000 134.542
54.51000 134.735
54.68000 147.763
54.85000 149.259
55.02000 145.088
55.19000 148.627
55.36000 164.454
55.53000 205.904
55.70000 259.570
55.87000 285.813
56.04000 282.154
56.21000 206.582
56.38000 181.491
56.55000 148.913
56.72000 134.550
56.89000 135.775
57.06000 136.531
57.23000 129.885
57.40000 131.192
57.57000 129.020
57.74000 120.755
57.91000 125.588
58.08000 126.171
58.25000 122.854
58.42000 125.485
58.59000 128.845
58.76000 118.173
58.93000 114.758
59.10000 120.925
59.27000 110.238
59.44000 130.079
59.61000 120.012
59.78000 114.768
59.95000 123.084
60.12000 115.523
60.29000 117.857
60.46000 118.580
60.63000 124.098
60.80000 124.863
60.97000 121.763
61.14000 126.469
61.31000 132.860
61.48000 153.773
61.65000 275.626
61.82000 173.321
61.99000 132.889
62.16000 134.162
62.33000 133.854
62.50000 131.892
62.67000 133.137
62.84000 133.884
63.01000 134.792
63.18000 134.565
63.35000 144.969
63.52000 136.562
63.69000 143.395
63.86000 145.505
64.03000 143.810
64.20000 153.102
64.37000 162.094
64.54000 165.301
64.71000 171.698
64.88000 181.220
65.05000 201.600
65.22000 223.336
65.39000 268.102
65.56000 331.408
65.73000 1216.401
65.90000 1918.873
66.07000 426.480
66.24000 406.846
66.41000 622.009
66.58000 397.232
66.75000 350.368
66.92000 375.799
67.09000 377.148
67.26000 401.833
67.43000 431.220
67.60000 450.090
67.77000 464.288
67.94000 512.689
68.11000 541.699
68.28000 588.228
68.45000 679.136
68.62000 967.759
68.79000 1710.973
68.96000 13928.622
69.13000 45747.758
69.30000 22495.266
69.47000 3968.975
69.64000 892.864
69.81000 601.612
69.98000 507.849
70.00000 492.570