Folder: Master-Thesis/XRD/08-10-2025 Dep 7/XY Data (part 2)

File: BTO_Mapping_Theta2Theta_08-10-2025_001_17_12-361_38-042.xy
20.00000 483.280
20.17000 464.653
20.34000 465.205
20.51000 480.636
20.68000 458.286
20.85000 475.285
21.02000 477.382
21.19000 454.837
21.36000 478.677
21.53000 471.713
21.70000 470.745
21.87000 485.283
22.04000 509.673
22.21000 507.730
22.38000 478.181
22.55000 466.930
22.72000 449.069
22.89000 454.742
23.06000 420.569
23.23000 431.753
23.40000 439.081
23.57000 459.761
23.74000 477.164
23.91000 507.246
24.08000 530.057
24.25000 472.489
24.42000 433.391
24.59000 435.300
24.76000 414.519
24.93000 413.937
25.10000 405.353
25.27000 403.775
25.44000 406.605
25.61000 400.660
25.78000 400.036
25.95000 407.158
26.12000 394.182
26.29000 398.180
26.46000 385.793
26.63000 378.387
26.80000 389.843
26.97000 386.897
27.14000 379.880
27.31000 393.201
27.48000 369.928
27.65000 371.022
27.82000 364.397
27.99000 362.784
28.16000 371.643
28.33000 360.416
28.50000 367.084
28.67000 359.394
28.84000 364.001
29.01000 349.936
29.18000 368.378
29.35000 367.610
29.52000 355.036
29.69000 375.429
29.86000 375.492
30.03000 399.882
30.20000 367.250
30.37000 379.221
30.54000 380.029
30.71000 392.859
30.88000 414.357
31.05000 499.351
31.22000 819.673
31.39000 1081.126
31.56000 806.625
31.73000 484.531
31.90000 391.711
32.07000 366.082
32.24000 335.771
32.41000 336.440
32.58000 334.384
32.75000 316.407
32.92000 322.298
33.09000 309.150
33.26000 305.498
33.43000 299.556
33.60000 301.145
33.77000 296.322
33.94000 308.439
34.11000 319.517
34.28000 326.329
34.45000 320.155
34.62000 298.690
34.79000 292.882
34.96000 271.555
35.13000 275.661
35.30000 259.318
35.47000 248.184
35.64000 272.140
35.81000 272.489
35.98000 252.201
36.15000 249.698
36.32000 259.284
36.49000 273.853
36.66000 250.444
36.83000 257.691
37.00000 269.629
37.17000 249.629
37.34000 252.651
37.51000 255.259
37.68000 249.640
37.85000 237.091
38.02000 259.853
38.19000 270.117
38.36000 297.772
38.53000 445.660
38.70000 676.473
38.87000 507.337
39.04000 304.779
39.21000 242.540
39.38000 217.410
39.55000 242.339
39.72000 237.677
39.89000 221.881
40.06000 225.087
40.23000 226.170
40.40000 217.720
40.57000 225.138
40.74000 227.879
40.91000 220.085
41.08000 218.625
41.25000 209.788
41.42000 213.154
41.59000 217.745
41.76000 211.693
41.93000 218.681
42.10000 227.988
42.27000 223.554
42.44000 207.505
42.61000 213.817
42.78000 205.603
42.95000 213.167
43.12000 202.463
43.29000 196.086
43.46000 191.871
43.63000 187.078
43.80000 199.093
43.97000 203.929
44.14000 197.765
44.31000 198.117
44.48000 204.482
44.65000 220.572
44.82000 221.972
44.99000 231.075
45.16000 230.996
45.33000 232.634
45.50000 199.069
45.67000 187.715
45.84000 181.497
46.01000 169.399
46.18000 173.273
46.35000 175.624
46.52000 181.211
46.69000 175.794
46.86000 150.999
47.03000 172.519
47.20000 173.939
47.37000 168.910
47.54000 159.441
47.71000 165.864
47.88000 150.871
48.05000 162.537
48.22000 160.044
48.39000 168.056
48.56000 167.181
48.73000 150.966
48.90000 145.193
49.07000 159.707
49.24000 161.300
49.41000 149.414
49.58000 153.245
49.75000 155.060
49.92000 163.085
50.09000 154.328
50.26000 157.447
50.43000 165.404
50.60000 167.569
50.77000 182.029
50.94000 168.616
51.11000 151.986
51.28000 152.106
51.45000 144.624
51.62000 149.721
51.79000 139.154
51.96000 142.244
52.13000 135.512
52.30000 138.177
52.47000 140.995
52.64000 133.385
52.81000 150.156
52.98000 150.257
53.15000 138.745
53.32000 145.464
53.49000 142.356
53.66000 138.411
53.83000 144.017
54.00000 137.092
54.17000 138.640
54.34000 144.122
54.51000 135.773
54.68000 141.814
54.85000 132.061
55.02000 146.332
55.19000 144.864
55.36000 155.809
55.53000 187.630
55.70000 248.317
55.87000 313.461
56.04000 304.126
56.21000 247.770
56.38000 176.003
56.55000 145.981
56.72000 141.298
56.89000 137.004
57.06000 142.073
57.23000 127.170
57.40000 129.352
57.57000 122.909
57.74000 124.337
57.91000 123.537
58.08000 123.032
58.25000 124.214
58.42000 119.008
58.59000 121.061
58.76000 126.535
58.93000 123.727
59.10000 130.741
59.27000 121.274
59.44000 115.155
59.61000 122.969
59.78000 111.926
59.95000 121.728
60.12000 116.879
60.29000 117.978
60.46000 116.621
60.63000 109.105
60.80000 127.656
60.97000 124.970
61.14000 115.236
61.31000 125.725
61.48000 132.271
61.65000 289.143
61.82000 209.948
61.99000 139.348
62.16000 129.084
62.33000 124.226
62.50000 124.222
62.67000 126.889
62.84000 135.112
63.01000 133.589
63.18000 128.644
63.35000 139.837
63.52000 144.598
63.69000 133.288
63.86000 152.163
64.03000 145.451
64.20000 154.261
64.37000 143.708
64.54000 159.724
64.71000 157.607
64.88000 186.972
65.05000 189.535
65.22000 222.390
65.39000 242.229
65.56000 326.033
65.73000 986.259
65.90000 1939.949
66.07000 528.639
66.24000 398.098
66.41000 645.137
66.58000 426.159
66.75000 329.627
66.92000 353.623
67.09000 392.693
67.26000 385.362
67.43000 406.826
67.60000 441.939
67.77000 462.790
67.94000 482.129
68.11000 515.722
68.28000 603.775
68.45000 651.112
68.62000 905.909
68.79000 1593.295
68.96000 8345.369
69.13000 44544.359
69.30000 24524.664
69.47000 6447.268
69.64000 940.767
69.81000 620.800
69.98000 513.273
70.00000 516.947

File: BTO_Mapping_Theta2Theta_08-10-2025_001_20_-3-136_29-836.xy
20.00000 471.875
20.17000 480.395
20.34000 470.507
20.51000 466.730
20.68000 454.682
20.85000 460.621
21.02000 449.076
21.19000 471.517
21.36000 467.578
21.53000 491.264
21.70000 458.011
21.87000 493.785
22.04000 515.019
22.21000 505.509
22.38000 478.109
22.55000 438.736
22.72000 448.313
22.89000 446.056
23.06000 447.550
23.23000 424.193
23.40000 449.298
23.57000 428.917
23.74000 462.828
23.91000 491.144
24.08000 497.815
24.25000 460.707
24.42000 425.366
24.59000 430.005
24.76000 424.715
24.93000 401.993
25.10000 419.592
25.27000 397.412
25.44000 402.603
25.61000 413.825
25.78000 384.185
25.95000 391.460
26.12000 389.081
26.29000 378.933
26.46000 387.568
26.63000 377.610
26.80000 392.414
26.97000 378.150
27.14000 359.743
27.31000 377.054
27.48000 380.206
27.65000 380.259
27.82000 363.600
27.99000 368.004
28.16000 361.460
28.33000 370.519
28.50000 360.859
28.67000 353.885
28.84000 354.354
29.01000 358.489
29.18000 357.295
29.35000 354.673
29.52000 356.953
29.69000 359.901
29.86000 355.049
30.03000 375.756
30.20000 361.685
30.37000 358.634
30.54000 385.721
30.71000 371.046
30.88000 412.808
31.05000 484.891
31.22000 820.483
31.39000 1273.991
31.56000 921.021
31.73000 504.170
31.90000 371.287
32.07000 341.324
32.24000 340.828
32.41000 336.155
32.58000 322.101
32.75000 307.498
32.92000 338.002
33.09000 307.478
33.26000 306.991
33.43000 286.481
33.60000 304.368
33.77000 296.821
33.94000 302.671
34.11000 322.426
34.28000 361.097
34.45000 339.243
34.62000 320.969
34.79000 297.429
34.96000 275.872
35.13000 274.264
35.30000 270.310
35.47000 276.181
35.64000 260.759
35.81000 271.294
35.98000 268.347
36.15000 264.332
36.32000 253.543
36.49000 244.369
36.66000 270.837
36.83000 250.228
37.00000 272.195
37.17000 268.045
37.34000 264.493
37.51000 246.565
37.68000 256.333
37.85000 251.847
38.02000 256.011
38.19000 269.907
38.36000 302.577
38.53000 497.710
38.70000 934.945
38.87000 712.400
39.04000 329.313
39.21000 229.971
39.38000 222.565
39.55000 218.371
39.72000 234.590
39.89000 220.463
40.06000 241.927
40.23000 234.946
40.40000 206.041
40.57000 203.095
40.74000 218.841
40.91000 225.970
41.08000 207.361
41.25000 200.927
41.42000 212.987
41.59000 202.432
41.76000 206.531
41.93000 222.999
42.10000 213.606
42.27000 213.095
42.44000 211.436
42.61000 204.566
42.78000 209.204
42.95000 208.424
43.12000 203.875
43.29000 192.975
43.46000 203.454
43.63000 184.358
43.80000 200.555
43.97000 187.962
44.14000 184.169
44.31000 203.969
44.48000 207.182
44.65000 207.463
44.82000 226.266
44.99000 238.229
45.16000 232.698
45.33000 226.521
45.50000 201.234
45.67000 198.140
45.84000 193.882
46.01000 187.021
46.18000 179.097
46.35000 167.748
46.52000 187.276
46.69000 170.684
46.86000 169.658
47.03000 176.053
47.20000 167.017
47.37000 169.855
47.54000 165.571
47.71000 168.152
47.88000 159.746
48.05000 165.367
48.22000 175.116
48.39000 161.159
48.56000 166.123
48.73000 164.002
48.90000 148.728
49.07000 157.131
49.24000 164.785
49.41000 146.108
49.58000 144.466
49.75000 155.013
49.92000 163.458
50.09000 146.249
50.26000 140.874
50.43000 160.860
50.60000 164.754
50.77000 163.930
50.94000 160.131
51.11000 146.452
51.28000 147.701
51.45000 144.405
51.62000 141.653
51.79000 138.473
51.96000 143.931
52.13000 138.774
52.30000 133.683
52.47000 136.695
52.64000 140.549
52.81000 139.398
52.98000 132.716
53.15000 150.601
53.32000 159.510
53.49000 151.255
53.66000 153.303
53.83000 150.249
54.00000 147.565
54.17000 133.588
54.34000 139.869
54.51000 152.831
54.68000 134.744
54.85000 143.626
55.02000 143.969
55.19000 143.324
55.36000 163.640
55.53000 215.957
55.70000 313.272
55.87000 493.504
56.04000 533.859
56.21000 335.166
56.38000 193.332
56.55000 159.549
56.72000 140.300
56.89000 138.954
57.06000 135.682
57.23000 133.044
57.40000 132.263
57.57000 128.828
57.74000 128.730
57.91000 120.019
58.08000 124.428
58.25000 122.399
58.42000 123.850
58.59000 118.037
58.76000 119.591
58.93000 114.107
59.10000 123.502
59.27000 115.948
59.44000 111.444
59.61000 117.470
59.78000 116.311
59.95000 114.255
60.12000 119.617
60.29000 113.796
60.46000 120.933
60.63000 110.654
60.80000 118.308
60.97000 117.703
61.14000 119.466
61.31000 128.873
61.48000 129.229
61.65000 293.242
61.82000 199.622
61.99000 132.444
62.16000 132.494
62.33000 126.570
62.50000 127.026
62.67000 126.058
62.84000 133.740
63.01000 120.707
63.18000 130.632
63.35000 132.434
63.52000 130.457
63.69000 127.987
63.86000 145.085
64.03000 146.269
64.20000 144.690
64.37000 152.630
64.54000 162.059
64.71000 169.394
64.88000 178.038
65.05000 205.011
65.22000 212.428
65.39000 271.667
65.56000 322.038
65.73000 905.325
65.90000 1838.611
66.07000 540.290
66.24000 372.204
66.41000 612.671
66.58000 421.457
66.75000 337.948
66.92000 353.656
67.09000 382.798
67.26000 366.089
67.43000 415.522
67.60000 421.681
67.77000 446.535
67.94000 481.465
68.11000 529.160
68.28000 568.382
68.45000 635.388
68.62000 847.036
68.79000 1543.791
68.96000 6978.867
69.13000 42369.746
69.30000 24434.623
69.47000 7012.677
69.64000 903.636
69.81000 637.634
69.98000 514.966
70.00000 509.154

File: BTO_Mapping_Theta2Theta_08-10-2025_001_21_-4-181_39-781.xy
20.00000 474.245
20.17000 469.491
20.34000 466.588
20.51000 466.663
20.68000 477.459
20.85000 472.870
21.02000 465.554
21.19000 460.870
21.36000 476.282
21.53000 452.889
21.70000 467.565
21.87000 477.803
22.04000 483.531
22.21000 514.766
22.38000 482.577
22.55000 448.695
22.72000 448.200
22.89000 452.329
23.06000 424.545
23.23000 427.555
23.40000 432.262
23.57000 444.615
23.74000 458.220
23.91000 520.126
24.08000 520.616
24.25000 466.238
24.42000 417.572
24.59000 398.355
24.76000 414.114
24.93000 408.678
25.10000 394.290
25.27000 409.347
25.44000 385.482
25.61000 407.558
25.78000 404.822
25.95000 403.449
26.12000 387.911
26.29000 382.116
26.46000 371.375
26.63000 381.581
26.80000 394.501
26.97000 379.930
27.14000 386.861
27.31000 381.852
27.48000 393.709
27.65000 381.444
27.82000 358.987
27.99000 361.492
28.16000 377.367
28.33000 365.923
28.50000 384.879
28.67000 360.992
28.84000 358.122
29.01000 362.514
29.18000 349.610
29.35000 360.448
29.52000 358.764
29.69000 347.064
29.86000 359.520
30.03000 382.616
30.20000 393.039
30.37000 371.108
30.54000 366.660
30.71000 386.698
30.88000 383.876
31.05000 485.405
31.22000 795.722
31.39000 1224.333
31.56000 908.173
31.73000 489.138
31.90000 391.137
32.07000 377.160
32.24000 369.750
32.41000 332.307
32.58000 323.021
32.75000 324.556
32.92000 307.966
33.09000 316.500
33.26000 306.275
33.43000 282.479
33.60000 293.004
33.77000 309.514
33.94000 308.969
34.11000 317.820
34.28000 350.723
34.45000 344.802
34.62000 316.595
34.79000 289.777
34.96000 284.931
35.13000 269.738
35.30000 266.951
35.47000 270.703
35.64000 271.555
35.81000 275.426
35.98000 269.245
36.15000 253.297
36.32000 274.248
36.49000 274.315
36.66000 258.660
36.83000 265.621
37.00000 269.191
37.17000 264.854
37.34000 259.970
37.51000 270.394
37.68000 257.959
37.85000 261.619
38.02000 265.355
38.19000 259.378
38.36000 281.708
38.53000 488.408
38.70000 830.165
38.87000 654.456
39.04000 322.557
39.21000 238.990
39.38000 234.843
39.55000 248.232
39.72000 232.756
39.89000 237.521
40.06000 230.941
40.23000 231.431
40.40000 225.576
40.57000 219.290
40.74000 225.134
40.91000 213.982
41.08000 220.226
41.25000 212.754
41.42000 204.068
41.59000 208.821
41.76000 207.180
41.93000 209.511
42.10000 213.317
42.27000 214.780
42.44000 212.721
42.61000 214.277
42.78000 213.486
42.95000 193.627
43.12000 198.476
43.29000 207.456
43.46000 191.062
43.63000 186.200
43.80000 185.197
43.97000 183.580
44.14000 193.167
44.31000 202.019
44.48000 211.281
44.65000 217.089
44.82000 222.391
44.99000 236.736
45.16000 236.189
45.33000 203.933
45.50000 206.734
45.67000 208.587
45.84000 193.148
46.01000 184.163
46.18000 169.246
46.35000 182.724
46.52000 180.379
46.69000 168.775
46.86000 175.618
47.03000 174.724
47.20000 163.591
47.37000 161.791
47.54000 166.388
47.71000 167.077
47.88000 157.895
48.05000 163.169
48.22000 181.796
48.39000 163.194
48.56000 159.554
48.73000 150.987
48.90000 165.122
49.07000 151.369
49.24000 160.904
49.41000 159.809
49.58000 168.384
49.75000 149.268
49.92000 161.884
50.09000 156.763
50.26000 164.553
50.43000 158.356
50.60000 157.085
50.77000 152.215
50.94000 163.196
51.11000 154.270
51.28000 144.360
51.45000 143.335
51.62000 144.677
51.79000 144.263
51.96000 138.281
52.13000 139.099
52.30000 143.140
52.47000 150.083
52.64000 148.452
52.81000 137.097
52.98000 134.680
53.15000 138.628
53.32000 151.652
53.49000 154.838
53.66000 145.021
53.83000 141.135
54.00000 138.249
54.17000 156.793
54.34000 132.345
54.51000 147.616
54.68000 132.699
54.85000 147.000
55.02000 141.472
55.19000 141.703
55.36000 168.697
55.53000 203.331
55.70000 264.506
55.87000 416.759
56.04000 432.395
56.21000 310.003
56.38000 207.328
56.55000 159.876
56.72000 133.333
56.89000 132.364
57.06000 126.147
57.23000 127.627
57.40000 137.348
57.57000 121.603
57.74000 131.554
57.91000 125.116
58.08000 115.906
58.25000 129.412
58.42000 111.859
58.59000 112.697
58.76000 125.365
58.93000 119.396
59.10000 121.902
59.27000 120.591
59.44000 119.507
59.61000 118.864
59.78000 108.410
59.95000 111.697
60.12000 111.505
60.29000 104.913
60.46000 121.405
60.63000 121.461
60.80000 115.379
60.97000 128.812
61.14000 132.100
61.31000 132.507
61.48000 136.281
61.65000 267.657
61.82000 202.313
61.99000 134.788
62.16000 134.290
62.33000 137.352
62.50000 130.230
62.67000 129.300
62.84000 133.804
63.01000 134.345
63.18000 136.310
63.35000 147.741
63.52000 140.603
63.69000 142.397
63.86000 136.798
64.03000 141.026
64.20000 147.008
64.37000 145.589
64.54000 170.707
64.71000 172.377
64.88000 186.248
65.05000 190.692
65.22000 210.492
65.39000 248.234
65.56000 326.866
65.73000 865.496
65.90000 1886.262
66.07000 532.016
66.24000 375.481
66.41000 605.320
66.58000 433.137
66.75000 351.466
66.92000 368.112
67.09000 365.751
67.26000 392.064
67.43000 409.616
67.60000 439.129
67.77000 470.984
67.94000 484.922
68.11000 524.989
68.28000 564.351
68.45000 650.938
68.62000 857.486
68.79000 1559.778
68.96000 6572.771
69.13000 42745.656
69.30000 25338.445
69.47000 7541.988
69.64000 954.713
69.81000 622.749
69.98000 518.833
70.00000 500.654

File: BTO_Mapping_Theta2Theta_08-10-2025_001_24_-15-000_25-981.xy
20.00000 456.065
20.17000 459.130
20.34000 467.469
20.51000 468.819
20.68000 453.004
20.85000 462.340
21.02000 470.018
21.19000 463.929
21.36000 456.893
21.53000 468.128
21.70000 489.737
21.87000 484.710
22.04000 553.267
22.21000 524.722
22.38000 488.749
22.55000 457.416
22.72000 443.009
22.89000 438.192
23.06000 449.075
23.23000 430.166
23.40000 420.558
23.57000 424.736
23.74000 442.670
23.91000 471.708
24.08000 479.774
24.25000 418.532
24.42000 412.582
24.59000 408.983
24.76000 395.183
24.93000 403.729
25.10000 401.482
25.27000 413.329
25.44000 401.684
25.61000 414.169
25.78000 371.283
25.95000 379.187
26.12000 368.688
26.29000 380.140
26.46000 395.682
26.63000 382.873
26.80000 381.672
26.97000 379.486
27.14000 386.063
27.31000 374.300
27.48000 363.164
27.65000 381.805
27.82000 356.947
27.99000 381.621
28.16000 358.215
28.33000 355.953
28.50000 365.045
28.67000 373.643
28.84000 338.898
29.01000 338.493
29.18000 371.572
29.35000 341.502
29.52000 349.987
29.69000 349.357
29.86000 369.288
30.03000 353.351
30.20000 360.326
30.37000 372.007
30.54000 358.379
30.71000 348.955
30.88000 386.867
31.05000 432.353
31.22000 727.962
31.39000 1083.347
31.56000 793.902
31.73000 440.362
31.90000 358.822
32.07000 337.137
32.24000 327.137
32.41000 329.011
32.58000 323.505
32.75000 305.922
32.92000 313.890
33.09000 291.268
33.26000 301.758
33.43000 282.974
33.60000 295.621
33.77000 300.425
33.94000 304.168
34.11000 311.127
34.28000 325.636
34.45000 340.061
34.62000 320.417
34.79000 293.062
34.96000 273.782
35.13000 274.052
35.30000 269.981
35.47000 261.984
35.64000 262.579
35.81000 261.573
35.98000 247.160
36.15000 250.051
36.32000 249.470
36.49000 254.143
36.66000 257.144
36.83000 273.860
37.00000 284.054
37.17000 262.801
37.34000 261.035
37.51000 265.582
37.68000 227.615
37.85000 256.765
38.02000 245.586
38.19000 269.580
38.36000 322.422
38.53000 614.079
38.70000 1092.756
38.87000 859.196
39.04000 357.884
39.21000 246.227
39.38000 221.351
39.55000 230.383
39.72000 222.991
39.89000 217.051
40.06000 220.936
40.23000 217.846
40.40000 220.356
40.57000 224.427
40.74000 211.506
40.91000 219.198
41.08000 218.789
41.25000 224.909
41.42000 218.275
41.59000 214.921
41.76000 220.859
41.93000 208.799
42.10000 208.814
42.27000 204.152
42.44000 213.399
42.61000 203.108
42.78000 207.866
42.95000 206.944
43.12000 205.446
43.29000 196.466
43.46000 196.419
43.63000 181.101
43.80000 192.882
43.97000 207.761
44.14000 199.810
44.31000 197.185
44.48000 204.742
44.65000 218.617
44.82000 231.101
44.99000 266.328
45.16000 251.552
45.33000 228.594
45.50000 224.745
45.67000 206.383
45.84000 183.958
46.01000 185.997
46.18000 187.517
46.35000 179.668
46.52000 177.549
46.69000 169.495
46.86000 166.561
47.03000 161.346
47.20000 177.838
47.37000 155.629
47.54000 167.820
47.71000 159.426
47.88000 172.803
48.05000 157.428
48.22000 147.360
48.39000 153.075
48.56000 161.810
48.73000 154.642
48.90000 145.569
49.07000 148.880
49.24000 155.745
49.41000 148.863
49.58000 152.271
49.75000 168.426
49.92000 152.026
50.09000 156.631
50.26000 148.040
50.43000 160.152
50.60000 163.302
50.77000 154.173
50.94000 156.535
51.11000 146.311
51.28000 154.465
51.45000 137.690
51.62000 130.209
51.79000 148.231
51.96000 146.896
52.13000 141.710
52.30000 142.587
52.47000 144.353
52.64000 143.920
52.81000 133.350
52.98000 133.650
53.15000 156.732
53.32000 162.969
53.49000 166.488
53.66000 143.266
53.83000 147.847
54.00000 142.673
54.17000 143.079
54.34000 130.852
54.51000 128.614
54.68000 138.290
54.85000 141.515
55.02000 142.387
55.19000 146.391
55.36000 160.546
55.53000 222.032
55.70000 378.921
55.87000 619.439
56.04000 644.536
56.21000 397.040
56.38000 215.584
56.55000 146.941
56.72000 134.699
56.89000 131.254
57.06000 120.033
57.23000 125.100
57.40000 126.756
57.57000 125.916
57.74000 127.720
57.91000 123.660
58.08000 123.400
58.25000 120.399
58.42000 124.524
58.59000 127.727
58.76000 130.508
58.93000 125.863
59.10000 119.578
59.27000 130.172
59.44000 121.348
59.61000 120.366
59.78000 108.431
59.95000 118.272
60.12000 119.685
60.29000 112.479
60.46000 115.542
60.63000 114.679
60.80000 116.404
60.97000 128.184
61.14000 123.913
61.31000 126.533
61.48000 129.698
61.65000 279.821
61.82000 223.698
61.99000 123.037
62.16000 127.838
62.33000 122.971
62.50000 126.978
62.67000 125.021
62.84000 128.961
63.01000 116.544
63.18000 143.247
63.35000 138.732
63.52000 136.236
63.69000 134.679
63.86000 133.874
64.03000 146.128
64.20000 139.077
64.37000 156.633
64.54000 170.914
64.71000 158.395
64.88000 185.569
65.05000 186.796
65.22000 206.029
65.39000 239.813
65.56000 314.235
65.73000 873.398
65.90000 1947.674
66.07000 545.016
66.24000 375.085
66.41000 602.215
66.58000 437.394
66.75000 350.943
66.92000 359.207
67.09000 390.388
67.26000 394.836
67.43000 409.988
67.60000 424.494
67.77000 447.382
67.94000 486.729
68.11000 481.866
68.28000 556.025
68.45000 651.977
68.62000 847.265
68.79000 1537.387
68.96000 6519.841
69.13000 43488.609
69.30000 25893.559
69.47000 7859.664
69.64000 951.527
69.81000 650.889
69.98000 519.874
70.00000 498.609

File: BTO_Mapping_Theta2Theta_08-10-2025_001_26_-8-090_5-878.xy
20.00000 476.013
20.17000 490.896
20.34000 473.564
20.51000 457.678
20.68000 466.710
20.85000 445.283
21.02000 450.760
21.19000 452.840
21.36000 485.746
21.53000 475.509
21.70000 466.411
21.87000 492.664
22.04000 533.031
22.21000 516.728
22.38000 471.613
22.55000 447.733
22.72000 445.596
22.89000 433.873
23.06000 443.246
23.23000 432.329
23.40000 432.369
23.57000 417.362
23.74000 457.822
23.91000 473.500
24.08000 460.791
24.25000 453.129
24.42000 423.114
24.59000 427.429
24.76000 394.070
24.93000 402.949
25.10000 405.072
25.27000 401.798
25.44000 396.680
25.61000 398.590
25.78000 401.534
25.95000 394.348
26.12000 389.450
26.29000 385.937
26.46000 370.099
26.63000 384.818
26.80000 390.161
26.97000 366.899
27.14000 376.764
27.31000 356.342
27.48000 378.546
27.65000 378.344
27.82000 370.569
27.99000 370.679
28.16000 372.613
28.33000 360.719
28.50000 354.871
28.67000 350.272
28.84000 355.978
29.01000 362.841
29.18000 363.789
29.35000 370.600
29.52000 335.461
29.69000 351.717
29.86000 367.616
30.03000 375.893
30.20000 364.743
30.37000 346.463
30.54000 366.364
30.71000 345.518
30.88000 376.505
31.05000 471.249
31.22000 868.365
31.39000 1172.734
31.56000 751.329
31.73000 431.617
31.90000 341.255
32.07000 335.832
32.24000 323.007
32.41000 325.229
32.58000 309.541
32.75000 316.419
32.92000 327.846
33.09000 320.696
33.26000 294.678
33.43000 297.986
33.60000 292.568
33.77000 295.696
33.94000 313.513
34.11000 330.599
34.28000 352.822
34.45000 358.807
34.62000 322.056
34.79000 291.117
34.96000 275.676
35.13000 262.295
35.30000 282.746
35.47000 271.392
35.64000 270.816
35.81000 269.625
35.98000 268.967
36.15000 250.976
36.32000 260.853
36.49000 250.484
36.66000 260.955
36.83000 257.349
37.00000 284.193
37.17000 273.910
37.34000 279.985
37.51000 263.485
37.68000 249.553
37.85000 273.745
38.02000 253.114
38.19000 266.811
38.36000 357.190
38.53000 718.922
38.70000 1203.340
38.87000 834.203
39.04000 356.281
39.21000 260.027
39.38000 240.216
39.55000 242.381
39.72000 223.873
39.89000 230.715
40.06000 218.537
40.23000 218.675
40.40000 210.455
40.57000 233.422
40.74000 197.461
40.91000 214.946
41.08000 201.540
41.25000 215.227
41.42000 218.998
41.59000 205.974
41.76000 211.069
41.93000 213.341
42.10000 209.382
42.27000 215.275
42.44000 210.955
42.61000 199.266
42.78000 212.330
42.95000 195.551
43.12000 198.686
43.29000 199.810
43.46000 193.259
43.63000 195.406
43.80000 181.662
43.97000 181.306
44.14000 199.481
44.31000 197.775
44.48000 191.404
44.65000 212.611
44.82000 248.192
44.99000 250.854
45.16000 240.968
45.33000 254.673
45.50000 226.096
45.67000 205.064
45.84000 194.978
46.01000 191.618
46.18000 178.032
46.35000 179.104
46.52000 165.112
46.69000 171.137
46.86000 168.460
47.03000 162.009
47.20000 170.271
47.37000 176.888
47.54000 165.280
47.71000 159.784
47.88000 167.935
48.05000 156.447
48.22000 161.469
48.39000 156.686
48.56000 150.301
48.73000 163.359
48.90000 155.444
49.07000 141.563
49.24000 156.010
49.41000 163.579
49.58000 154.444
49.75000 150.639
49.92000 155.954
50.09000 156.791
50.26000 155.937
50.43000 164.929
50.60000 176.187
50.77000 166.405
50.94000 164.703
51.11000 142.858
51.28000 147.603
51.45000 137.988
51.62000 146.702
51.79000 148.789
51.96000 147.610
52.13000 139.341
52.30000 140.546
52.47000 142.493
52.64000 138.657
52.81000 133.348
52.98000 152.603
53.15000 160.555
53.32000 157.063
53.49000 152.664
53.66000 151.184
53.83000 144.268
54.00000 142.497
54.17000 139.534
54.34000 141.527
54.51000 138.301
54.68000 142.781
54.85000 140.565
55.02000 133.102
55.19000 155.536
55.36000 178.322
55.53000 232.638
55.70000 441.796
55.87000 686.252
56.04000 633.963
56.21000 374.500
56.38000 202.749
56.55000 150.992
56.72000 144.811
56.89000 145.839
57.06000 130.382
57.23000 128.151
57.40000 130.870
57.57000 122.712
57.74000 126.648
57.91000 131.606
58.08000 119.091
58.25000 122.078
58.42000 126.289
58.59000 120.732
58.76000 120.485
58.93000 117.931
59.10000 118.090
59.27000 120.073
59.44000 118.807
59.61000 114.296
59.78000 124.134
59.95000 108.519
60.12000 116.051
60.29000 120.488
60.46000 115.219
60.63000 127.511
60.80000 122.655
60.97000 117.262
61.14000 120.643
61.31000 121.712
61.48000 137.228
61.65000 281.142
61.82000 205.845
61.99000 127.864
62.16000 125.930
62.33000 125.743
62.50000 125.548
62.67000 115.287
62.84000 133.436
63.01000 124.131
63.18000 128.751
63.35000 132.198
63.52000 133.924
63.69000 139.483
63.86000 141.503
64.03000 149.270
64.20000 158.049
64.37000 150.514
64.54000 166.803
64.71000 155.702
64.88000 189.694
65.05000 199.240
65.22000 219.827
65.39000 257.917
65.56000 332.473
65.73000 915.672
65.90000 1999.336
66.07000 521.902
66.24000 378.237
66.41000 628.290
66.58000 418.315
66.75000 343.184
66.92000 359.064
67.09000 367.018
67.26000 391.290
67.43000 409.584
67.60000 438.703
67.77000 446.758
67.94000 472.462
68.11000 513.625
68.28000 557.402
68.45000 632.916
68.62000 874.045
68.79000 1553.066
68.96000 7520.217
69.13000 44780.996
69.30000 25902.201
69.47000 7281.783
69.64000 945.545
69.81000 639.327
69.98000 527.104
70.00000 521.167