Folder: Master-Thesis/XRD/08-10-2025 Dep 7/XY Data (part 6)

File: BTO_Mapping_Theta2Theta_08-10-2025_001_51_6-180_-19-021.xy
20.00000 463.376
20.17000 482.443
20.34000 471.285
20.51000 477.497
20.68000 470.980
20.85000 461.599
21.02000 468.266
21.19000 483.670
21.36000 464.911
21.53000 483.779
21.70000 447.278
21.87000 518.835
22.04000 559.196
22.21000 508.113
22.38000 476.065
22.55000 459.414
22.72000 449.916
22.89000 436.888
23.06000 426.443
23.23000 433.461
23.40000 431.792
23.57000 459.437
23.74000 467.771
23.91000 512.608
24.08000 504.019
24.25000 462.445
24.42000 432.909
24.59000 413.208
24.76000 400.724
24.93000 403.641
25.10000 395.854
25.27000 404.030
25.44000 393.588
25.61000 401.679
25.78000 368.755
25.95000 390.662
26.12000 375.045
26.29000 388.792
26.46000 371.825
26.63000 372.918
26.80000 385.550
26.97000 379.206
27.14000 364.929
27.31000 364.010
27.48000 385.391
27.65000 369.990
27.82000 373.573
27.99000 363.346
28.16000 357.876
28.33000 363.873
28.50000 355.494
28.67000 364.653
28.84000 345.841
29.01000 340.819
29.18000 364.660
29.35000 346.130
29.52000 352.096
29.69000 359.689
29.86000 386.718
30.03000 372.594
30.20000 364.943
30.37000 371.116
30.54000 360.912
30.71000 367.036
30.88000 389.006
31.05000 489.269
31.22000 843.243
31.39000 1152.276
31.56000 788.609
31.73000 440.790
31.90000 353.874
32.07000 339.805
32.24000 324.649
32.41000 324.630
32.58000 314.631
32.75000 324.912
32.92000 317.057
33.09000 301.365
33.26000 295.234
33.43000 301.924
33.60000 285.018
33.77000 302.206
33.94000 309.293
34.11000 324.679
34.28000 346.878
34.45000 341.192
34.62000 322.874
34.79000 294.590
34.96000 286.022
35.13000 270.415
35.30000 262.686
35.47000 271.930
35.64000 273.933
35.81000 268.892
35.98000 266.472
36.15000 265.042
36.32000 263.881
36.49000 250.599
36.66000 263.270
36.83000 283.502
37.00000 278.518
37.17000 274.429
37.34000 260.865
37.51000 256.864
37.68000 251.542
37.85000 250.124
38.02000 253.345
38.19000 262.911
38.36000 341.807
38.53000 742.090
38.70000 1167.192
38.87000 783.797
39.04000 342.033
39.21000 250.211
39.38000 237.739
39.55000 239.490
39.72000 225.319
39.89000 236.814
40.06000 228.029
40.23000 225.248
40.40000 219.132
40.57000 208.450
40.74000 216.490
40.91000 223.899
41.08000 205.787
41.25000 202.958
41.42000 214.261
41.59000 206.973
41.76000 204.083
41.93000 209.444
42.10000 218.021
42.27000 206.507
42.44000 217.615
42.61000 210.227
42.78000 207.910
42.95000 196.237
43.12000 198.470
43.29000 196.147
43.46000 194.799
43.63000 199.187
43.80000 186.409
43.97000 207.378
44.14000 199.896
44.31000 200.084
44.48000 206.756
44.65000 231.905
44.82000 247.332
44.99000 269.492
45.16000 266.253
45.33000 238.628
45.50000 209.656
45.67000 201.006
45.84000 188.375
46.01000 189.601
46.18000 177.822
46.35000 179.079
46.52000 182.988
46.69000 173.762
46.86000 156.983
47.03000 160.418
47.20000 163.410
47.37000 163.305
47.54000 162.742
47.71000 157.122
47.88000 161.673
48.05000 157.064
48.22000 155.061
48.39000 169.014
48.56000 154.428
48.73000 154.561
48.90000 167.992
49.07000 161.714
49.24000 154.695
49.41000 157.725
49.58000 151.221
49.75000 155.226
49.92000 153.056
50.09000 154.633
50.26000 146.580
50.43000 162.037
50.60000 167.812
50.77000 161.475
50.94000 153.055
51.11000 154.315
51.28000 145.430
51.45000 148.995
51.62000 141.728
51.79000 144.533
51.96000 137.529
52.13000 139.572
52.30000 145.762
52.47000 141.337
52.64000 147.214
52.81000 121.819
52.98000 150.532
53.15000 143.492
53.32000 165.738
53.49000 155.160
53.66000 145.992
53.83000 140.207
54.00000 137.822
54.17000 152.131
54.34000 136.148
54.51000 137.699
54.68000 148.939
54.85000 143.257
55.02000 152.146
55.19000 150.087
55.36000 181.299
55.53000 253.323
55.70000 433.273
55.87000 668.591
56.04000 619.952
56.21000 351.438
56.38000 195.453
56.55000 158.871
56.72000 140.975
56.89000 140.056
57.06000 133.109
57.23000 132.201
57.40000 124.888
57.57000 133.646
57.74000 130.283
57.91000 130.571
58.08000 125.828
58.25000 129.758
58.42000 120.739
58.59000 118.767
58.76000 126.095
58.93000 112.867
59.10000 121.491
59.27000 122.539
59.44000 119.730
59.61000 115.953
59.78000 109.345
59.95000 121.278
60.12000 118.302
60.29000 113.917
60.46000 115.127
60.63000 124.490
60.80000 120.972
60.97000 122.660
61.14000 125.680
61.31000 126.485
61.48000 134.860
61.65000 259.807
61.82000 194.654
61.99000 128.740
62.16000 125.660
62.33000 129.100
62.50000 125.824
62.67000 130.604
62.84000 134.333
63.01000 137.730
63.18000 135.674
63.35000 139.379
63.52000 134.175
63.69000 133.355
63.86000 137.833
64.03000 153.175
64.20000 148.742
64.37000 157.253
64.54000 149.950
64.71000 160.159
64.88000 175.040
65.05000 168.986
65.22000 212.640
65.39000 247.034
65.56000 324.456
65.73000 979.385
65.90000 1836.699
66.07000 466.295
66.24000 377.858
66.41000 580.949
66.58000 398.487
66.75000 341.999
66.92000 327.696
67.09000 371.868
67.26000 394.002
67.43000 424.731
67.60000 403.382
67.77000 440.052
67.94000 483.180
68.11000 487.409
68.28000 555.916
68.45000 609.775
68.62000 863.122
68.79000 1539.257
68.96000 9022.198
69.13000 41821.820
69.30000 22400.746
69.47000 5350.570
69.64000 842.703
69.81000 596.172
69.98000 498.526
70.00000 485.467

File: BTO_Mapping_Theta2Theta_08-10-2025_001_53_12-361_-38-042.xy
20.00000 473.326
20.17000 474.008
20.34000 473.801
20.51000 475.129
20.68000 464.330
20.85000 469.827
21.02000 453.036
21.19000 476.355
21.36000 455.103
21.53000 474.145
21.70000 481.196
21.87000 479.814
22.04000 539.589
22.21000 495.047
22.38000 476.431
22.55000 461.408
22.72000 450.925
22.89000 432.348
23.06000 436.384
23.23000 442.750
23.40000 433.583
23.57000 434.888
23.74000 490.722
23.91000 526.225
24.08000 520.152
24.25000 457.116
24.42000 427.979
24.59000 404.234
24.76000 396.402
24.93000 405.508
25.10000 415.880
25.27000 406.985
25.44000 396.136
25.61000 391.241
25.78000 398.377
25.95000 398.135
26.12000 390.602
26.29000 390.113
26.46000 385.974
26.63000 399.335
26.80000 383.768
26.97000 375.595
27.14000 391.409
27.31000 370.044
27.48000 369.098
27.65000 384.061
27.82000 358.941
27.99000 367.685
28.16000 365.031
28.33000 376.395
28.50000 361.121
28.67000 360.605
28.84000 361.780
29.01000 350.010
29.18000 355.326
29.35000 361.694
29.52000 351.533
29.69000 365.814
29.86000 363.256
30.03000 379.162
30.20000 385.235
30.37000 363.161
30.54000 364.179
30.71000 399.695
30.88000 412.216
31.05000 537.877
31.22000 973.146
31.39000 1343.402
31.56000 838.699
31.73000 434.728
31.90000 384.235
32.07000 348.339
32.24000 337.978
32.41000 341.046
32.58000 330.148
32.75000 328.710
32.92000 321.942
33.09000 317.857
33.26000 290.549
33.43000 302.068
33.60000 300.186
33.77000 298.769
33.94000 313.131
34.11000 333.456
34.28000 350.916
34.45000 347.207
34.62000 322.308
34.79000 302.344
34.96000 291.334
35.13000 280.687
35.30000 273.243
35.47000 266.555
35.64000 261.908
35.81000 261.265
35.98000 258.861
36.15000 262.771
36.32000 269.933
36.49000 269.428
36.66000 268.215
36.83000 278.756
37.00000 293.367
37.17000 266.607
37.34000 259.223
37.51000 251.753
37.68000 249.906
37.85000 247.466
38.02000 270.306
38.19000 266.857
38.36000 346.848
38.53000 677.713
38.70000 1062.876
38.87000 722.713
39.04000 324.069
39.21000 234.241
39.38000 234.775
39.55000 230.443
39.72000 228.168
39.89000 235.046
40.06000 225.562
40.23000 213.820
40.40000 220.446
40.57000 214.184
40.74000 236.408
40.91000 214.292
41.08000 215.832
41.25000 216.932
41.42000 199.724
41.59000 217.500
41.76000 221.548
41.93000 230.583
42.10000 216.395
42.27000 220.524
42.44000 222.356
42.61000 230.399
42.78000 215.816
42.95000 196.827
43.12000 198.224
43.29000 197.285
43.46000 198.654
43.63000 191.227
43.80000 203.495
43.97000 192.354
44.14000 201.911
44.31000 191.872
44.48000 208.005
44.65000 218.847
44.82000 228.229
44.99000 235.821
45.16000 253.205
45.33000 213.592
45.50000 208.923
45.67000 203.233
45.84000 182.597
46.01000 180.503
46.18000 180.570
46.35000 169.839
46.52000 174.692
46.69000 183.894
46.86000 185.028
47.03000 179.433
47.20000 166.651
47.37000 170.359
47.54000 163.954
47.71000 152.967
47.88000 160.926
48.05000 178.605
48.22000 165.080
48.39000 160.651
48.56000 158.567
48.73000 148.668
48.90000 152.304
49.07000 157.324
49.24000 154.742
49.41000 156.908
49.58000 148.359
49.75000 159.188
49.92000 166.342
50.09000 161.076
50.26000 148.226
50.43000 157.490
50.60000 170.306
50.77000 166.405
50.94000 152.887
51.11000 154.255
51.28000 142.861
51.45000 150.312
51.62000 147.478
51.79000 147.508
51.96000 148.024
52.13000 140.042
52.30000 143.195
52.47000 147.702
52.64000 136.010
52.81000 142.373
52.98000 143.758
53.15000 139.771
53.32000 153.397
53.49000 157.675
53.66000 148.535
53.83000 139.389
54.00000 140.314
54.17000 140.520
54.34000 152.266
54.51000 149.120
54.68000 140.865
54.85000 140.636
55.02000 157.717
55.19000 164.113
55.36000 177.090
55.53000 233.898
55.70000 383.149
55.87000 608.998
56.04000 566.114
56.21000 330.736
56.38000 193.175
56.55000 148.702
56.72000 144.410
56.89000 129.513
57.06000 136.237
57.23000 114.499
57.40000 122.600
57.57000 124.750
57.74000 128.715
57.91000 122.797
58.08000 116.379
58.25000 125.929
58.42000 125.507
58.59000 117.826
58.76000 120.250
58.93000 120.710
59.10000 125.366
59.27000 117.871
59.44000 118.250
59.61000 117.489
59.78000 113.133
59.95000 111.259
60.12000 124.390
60.29000 120.223
60.46000 113.180
60.63000 115.612
60.80000 121.096
60.97000 114.726
61.14000 116.452
61.31000 117.821
61.48000 145.988
61.65000 283.053
61.82000 183.858
61.99000 127.217
62.16000 125.588
62.33000 132.505
62.50000 132.140
62.67000 129.900
62.84000 144.363
63.01000 133.561
63.18000 140.277
63.35000 134.425
63.52000 127.283
63.69000 142.330
63.86000 145.286
64.03000 145.028
64.20000 138.858
64.37000 150.203
64.54000 158.280
64.71000 170.616
64.88000 182.947
65.05000 189.625
65.22000 223.060
65.39000 257.194
65.56000 328.203
65.73000 1073.919
65.90000 1804.833
66.07000 447.827
66.24000 370.008
66.41000 611.315
66.58000 398.256
66.75000 341.468
66.92000 341.989
67.09000 364.680
67.26000 375.688
67.43000 396.555
67.60000 448.805
67.77000 437.572
67.94000 465.344
68.11000 519.490
68.28000 541.555
68.45000 631.514
68.62000 864.754
68.79000 1559.030
68.96000 10331.286
69.13000 42180.445
69.30000 21596.879
69.47000 4652.454
69.64000 869.506
69.81000 601.580
69.98000 514.125
70.00000 508.142

File: BTO_Mapping_Theta2Theta_08-10-2025_001_57_26-765_-29-726.xy
20.00000 491.305
20.17000 479.059
20.34000 471.356
20.51000 463.408
20.68000 482.967
20.85000 472.203
21.02000 478.945
21.19000 482.866
21.36000 483.299
21.53000 485.819
21.70000 503.401
21.87000 507.195
22.04000 518.265
22.21000 501.364
22.38000 482.837
22.55000 464.376
22.72000 472.452
22.89000 467.637
23.06000 450.731
23.23000 447.064
23.40000 459.523
23.57000 467.512
23.74000 503.746
23.91000 560.793
24.08000 561.402
24.25000 481.334
24.42000 435.555
24.59000 423.133
24.76000 422.776
24.93000 422.381
25.10000 404.213
25.27000 413.990
25.44000 403.724
25.61000 394.674
25.78000 409.827
25.95000 406.959
26.12000 391.971
26.29000 398.189
26.46000 373.741
26.63000 377.969
26.80000 379.734
26.97000 384.477
27.14000 389.579
27.31000 401.931
27.48000 382.268
27.65000 373.728
27.82000 373.562
27.99000 388.672
28.16000 373.304
28.33000 368.432
28.50000 370.155
28.67000 355.897
28.84000 388.399
29.01000 374.220
29.18000 377.759
29.35000 360.415
29.52000 354.704
29.69000 385.058
29.86000 365.788
30.03000 384.447
30.20000 372.116
30.37000 345.616
30.54000 384.312
30.71000 395.130
30.88000 424.619
31.05000 548.292
31.22000 901.471
31.39000 1123.221
31.56000 715.409
31.73000 473.315
31.90000 390.888
32.07000 351.474
32.24000 351.820
32.41000 346.547
32.58000 326.600
32.75000 338.446
32.92000 321.308
33.09000 302.943
33.26000 313.383
33.43000 315.564
33.60000 288.558
33.77000 303.346
33.94000 317.383
34.11000 327.801
34.28000 346.723
34.45000 329.192
34.62000 307.769
34.79000 299.199
34.96000 296.350
35.13000 274.620
35.30000 277.121
35.47000 262.873
35.64000 268.631
35.81000 268.285
35.98000 267.840
36.15000 262.171
36.32000 261.657
36.49000 249.169
36.66000 273.752
36.83000 261.823
37.00000 283.359
37.17000 273.433
37.34000 251.942
37.51000 260.897
37.68000 256.116
37.85000 267.824
38.02000 266.921
38.19000 276.367
38.36000 333.668
38.53000 607.751
38.70000 845.037
38.87000 551.752
39.04000 298.535
39.21000 262.092
39.38000 240.542
39.55000 239.107
39.72000 235.029
39.89000 235.160
40.06000 235.791
40.23000 218.923
40.40000 217.523
40.57000 218.941
40.74000 228.865
40.91000 213.392
41.08000 220.864
41.25000 215.025
41.42000 209.531
41.59000 209.849
41.76000 216.453
41.93000 217.214
42.10000 226.860
42.27000 219.528
42.44000 221.221
42.61000 214.971
42.78000 221.303
42.95000 217.276
43.12000 203.823
43.29000 211.970
43.46000 199.062
43.63000 199.595
43.80000 197.793
43.97000 190.191
44.14000 193.839
44.31000 207.010
44.48000 210.224
44.65000 226.828
44.82000 231.953
44.99000 240.774
45.16000 229.144
45.33000 223.716
45.50000 214.206
45.67000 185.603
45.84000 190.567
46.01000 180.781
46.18000 191.740
46.35000 174.734
46.52000 182.788
46.69000 169.763
46.86000 165.119
47.03000 174.245
47.20000 174.469
47.37000 160.091
47.54000 170.225
47.71000 168.060
47.88000 152.131
48.05000 179.307
48.22000 164.500
48.39000 169.667
48.56000 164.502
48.73000 153.101
48.90000 161.871
49.07000 153.554
49.24000 148.522
49.41000 162.411
49.58000 150.970
49.75000 158.191
49.92000 161.002
50.09000 156.524
50.26000 157.054
50.43000 155.396
50.60000 169.178
50.77000 176.431
50.94000 158.454
51.11000 147.088
51.28000 148.539
51.45000 142.253
51.62000 137.133
51.79000 145.000
51.96000 144.438
52.13000 147.381
52.30000 136.488
52.47000 138.441
52.64000 130.826
52.81000 138.735
52.98000 149.063
53.15000 145.365
53.32000 151.796
53.49000 144.190
53.66000 144.452
53.83000 143.199
54.00000 150.438
54.17000 152.361
54.34000 143.838
54.51000 142.519
54.68000 135.866
54.85000 144.533
55.02000 146.338
55.19000 159.356
55.36000 175.076
55.53000 218.395
55.70000 299.822
55.87000 418.016
56.04000 374.127
56.21000 256.096
56.38000 182.978
56.55000 157.738
56.72000 137.947
56.89000 136.856
57.06000 132.530
57.23000 129.192
57.40000 134.300
57.57000 125.935
57.74000 126.059
57.91000 129.740
58.08000 128.116
58.25000 128.177
58.42000 124.398
58.59000 121.070
58.76000 122.196
58.93000 119.098
59.10000 122.096
59.27000 126.841
59.44000 125.373
59.61000 119.079
59.78000 122.513
59.95000 119.015
60.12000 115.343
60.29000 115.924
60.46000 120.538
60.63000 119.697
60.80000 127.977
60.97000 119.807
61.14000 119.860
61.31000 125.742
61.48000 139.363
61.65000 304.804
61.82000 186.222
61.99000 138.269
62.16000 127.380
62.33000 120.423
62.50000 131.294
62.67000 134.941
62.84000 129.739
63.01000 145.993
63.18000 140.403
63.35000 131.043
63.52000 128.777
63.69000 137.341
63.86000 135.817
64.03000 146.993
64.20000 137.079
64.37000 151.763
64.54000 158.228
64.71000 172.683
64.88000 187.837
65.05000 194.518
65.22000 223.940
65.39000 242.812
65.56000 331.783
65.73000 1178.637
65.90000 1874.354
66.07000 449.641
66.24000 394.816
66.41000 619.876
66.58000 396.931
66.75000 346.347
66.92000 363.007
67.09000 368.201
67.26000 370.165
67.43000 400.390
67.60000 428.384
67.77000 472.758
67.94000 509.841
68.11000 533.059
68.28000 559.115
68.45000 662.768
68.62000 943.406
68.79000 1652.739
68.96000 12674.375
69.13000 44610.809
69.30000 22124.262
69.47000 4237.405
69.64000 851.120
69.81000 602.674
69.98000 495.174
70.00000 480.929

File: BTO_Mapping_Theta2Theta_08-10-2025_001_59_18-271_-8-135.xy
20.00000 489.554
20.17000 479.564
20.34000 469.022
20.51000 474.324
20.68000 460.126
20.85000 460.892
21.02000 473.364
21.19000 470.117
21.36000 433.998
21.53000 487.854
21.70000 464.661
21.87000 489.005
22.04000 515.442
22.21000 510.305
22.38000 460.356
22.55000 459.375
22.72000 440.886
22.89000 472.445
23.06000 448.683
23.23000 446.472
23.40000 441.324
23.57000 452.232
23.74000 491.583
23.91000 563.379
24.08000 529.684
24.25000 473.481
24.42000 450.578
24.59000 421.606
24.76000 405.488
24.93000 417.497
25.10000 416.321
25.27000 402.613
25.44000 411.561
25.61000 391.992
25.78000 401.678
25.95000 390.335
26.12000 398.532
26.29000 391.818
26.46000 386.682
26.63000 386.507
26.80000 390.103
26.97000 378.267
27.14000 392.019
27.31000 370.373
27.48000 375.575
27.65000 363.930
27.82000 376.552
27.99000 351.794
28.16000 372.165
28.33000 366.152
28.50000 367.708
28.67000 359.496
28.84000 384.551
29.01000 351.689
29.18000 339.098
29.35000 341.963
29.52000 342.324
29.69000 351.395
29.86000 380.071
30.03000 387.031
30.20000 389.841
30.37000 374.154
30.54000 376.476
30.71000 381.442
30.88000 415.836
31.05000 529.883
31.22000 886.520
31.39000 1112.784
31.56000 752.880
31.73000 486.760
31.90000 377.467
32.07000 374.729
32.24000 367.043
32.41000 336.318
32.58000 326.985
32.75000 325.775
32.92000 323.505
33.09000 307.690
33.26000 311.680
33.43000 308.473
33.60000 304.907
33.77000 312.364
33.94000 311.959
34.11000 338.334
34.28000 349.234
34.45000 341.733
34.62000 330.628
34.79000 303.053
34.96000 281.433
35.13000 281.879
35.30000 289.332
35.47000 271.195
35.64000 262.719
35.81000 267.986
35.98000 263.965
36.15000 260.831
36.32000 265.897
36.49000 269.381
36.66000 281.631
36.83000 268.308
37.00000 276.012
37.17000 267.230
37.34000 260.268
37.51000 258.183
37.68000 260.318
37.85000 257.465
38.02000 245.990
38.19000 271.685
38.36000 323.198
38.53000 566.703
38.70000 910.316
38.87000 600.417
39.04000 315.763
39.21000 248.824
39.38000 242.242
39.55000 226.936
39.72000 242.101
39.89000 227.044
40.06000 234.217
40.23000 236.387
40.40000 232.306
40.57000 221.505
40.74000 226.861
40.91000 208.718
41.08000 204.885
41.25000 211.238
41.42000 210.586
41.59000 220.983
41.76000 223.596
41.93000 212.531
42.10000 235.573
42.27000 214.929
42.44000 228.877
42.61000 218.661
42.78000 221.223
42.95000 209.379
43.12000 197.149
43.29000 202.144
43.46000 200.487
43.63000 203.728
43.80000 199.139
43.97000 203.973
44.14000 205.484
44.31000 207.929
44.48000 222.487
44.65000 240.028
44.82000 239.369
44.99000 230.050
45.16000 235.488
45.33000 214.498
45.50000 201.300
45.67000 196.496
45.84000 182.717
46.01000 185.017
46.18000 176.709
46.35000 165.457
46.52000 179.822
46.69000 175.811
46.86000 180.626
47.03000 176.238
47.20000 177.942
47.37000 177.387
47.54000 171.016
47.71000 169.681
47.88000 172.812
48.05000 147.829
48.22000 150.667
48.39000 158.653
48.56000 164.123
48.73000 163.408
48.90000 158.234
49.07000 155.709
49.24000 158.589
49.41000 153.397
49.58000 156.851
49.75000 151.170
49.92000 153.005
50.09000 156.347
50.26000 155.048
50.43000 167.118
50.60000 163.556
50.77000 157.660
50.94000 162.471
51.11000 144.431
51.28000 132.707
51.45000 146.852
51.62000 140.740
51.79000 145.467
51.96000 136.857
52.13000 142.803
52.30000 145.959
52.47000 139.063
52.64000 145.682
52.81000 136.224
52.98000 147.393
53.15000 151.785
53.32000 154.101
53.49000 164.270
53.66000 142.604
53.83000 141.968
54.00000 135.607
54.17000 143.415
54.34000 139.969
54.51000 151.411
54.68000 143.459
54.85000 147.140
55.02000 152.303
55.19000 163.851
55.36000 179.043
55.53000 219.042
55.70000 322.114
55.87000 426.350
56.04000 434.145
56.21000 282.315
56.38000 186.898
56.55000 155.411
56.72000 155.103
56.89000 138.082
57.06000 140.644
57.23000 136.577
57.40000 125.853
57.57000 133.240
57.74000 131.584
57.91000 132.323
58.08000 129.641
58.25000 126.672
58.42000 122.330
58.59000 128.568
58.76000 118.690
58.93000 115.337
59.10000 127.321
59.27000 123.756
59.44000 120.938
59.61000 126.780
59.78000 119.206
59.95000 121.406
60.12000 113.464
60.29000 118.946
60.46000 123.944
60.63000 113.391
60.80000 127.266
60.97000 126.824
61.14000 119.492
61.31000 133.670
61.48000 136.594
61.65000 283.563
61.82000 165.263
61.99000 133.917
62.16000 126.487
62.33000 126.042
62.50000 138.505
62.67000 138.216
62.84000 125.622
63.01000 125.981
63.18000 146.806
63.35000 136.170
63.52000 141.253
63.69000 138.158
63.86000 131.698
64.03000 153.385
64.20000 151.319
64.37000 165.362
64.54000 164.069
64.71000 165.529
64.88000 181.082
65.05000 189.044
65.22000 210.380
65.39000 253.687
65.56000 314.089
65.73000 1084.578
65.90000 1899.369
66.07000 452.546
66.24000 390.902
66.41000 607.776
66.58000 393.168
66.75000 344.442
66.92000 361.218
67.09000 370.666
67.26000 397.133
67.43000 398.479
67.60000 426.329
67.77000 452.870
67.94000 483.548
68.11000 506.008
68.28000 567.174
68.45000 638.137
68.62000 916.969
68.79000 1612.023
68.96000 10632.297
69.13000 43657.969
69.30000 22486.244
69.47000 4850.474
69.64000 897.044
69.81000 602.407
69.98000 493.709
70.00000 493.600

File: BTO_Mapping_Theta2Theta_08-10-2025_001_60_27-406_-12-202.xy
20.00000 463.032
20.17000 479.888
20.34000 477.502
20.51000 482.536
20.68000 468.437
20.85000 493.504
21.02000 480.282
21.19000 477.822
21.36000 472.724
21.53000 469.966
21.70000 471.553
21.87000 495.605
22.04000 489.079
22.21000 503.391
22.38000 476.470
22.55000 460.526
22.72000 458.087
22.89000 448.050
23.06000 441.857
23.23000 453.646
23.40000 462.095
23.57000 483.217
23.74000 490.101
23.91000 551.827
24.08000 552.616
24.25000 464.531
24.42000 436.260
24.59000 445.514
24.76000 424.202
24.93000 415.999
25.10000 412.415
25.27000 413.295
25.44000 417.134
25.61000 401.018
25.78000 393.773
25.95000 400.090
26.12000 414.816
26.29000 394.974
26.46000 388.491
26.63000 386.855
26.80000 377.395
26.97000 388.502
27.14000 376.693
27.31000 374.887
27.48000 381.444
27.65000 383.013
27.82000 377.986
27.99000 378.987
28.16000 374.340
28.33000 372.975
28.50000 362.708
28.67000 372.567
28.84000 375.324
29.01000 365.205
29.18000 362.733
29.35000 366.447
29.52000 361.411
29.69000 371.932
29.86000 386.578
30.03000 373.426
30.20000 387.531
30.37000 373.102
30.54000 357.955
30.71000 388.752
30.88000 424.690
31.05000 522.575
31.22000 824.668
31.39000 1025.990
31.56000 693.284
31.73000 449.786
31.90000 360.692
32.07000 363.409
32.24000 358.712
32.41000 349.051
32.58000 344.618
32.75000 320.002
32.92000 320.391
33.09000 297.508
33.26000 295.747
33.43000 279.558
33.60000 299.125
33.77000 310.932
33.94000 319.794
34.11000 323.862
34.28000 341.305
34.45000 336.042
34.62000 302.858
34.79000 279.495
34.96000 271.076
35.13000 267.355
35.30000 269.300
35.47000 264.828
35.64000 266.233
35.81000 255.854
35.98000 251.460
36.15000 250.456
36.32000 260.672
36.49000 254.460
36.66000 260.110
36.83000 250.658
37.00000 256.064
37.17000 265.709
37.34000 251.143
37.51000 247.410
37.68000 242.447
37.85000 255.559
38.02000 271.581
38.19000 280.709
38.36000 329.341
38.53000 557.883
38.70000 810.408
38.87000 522.773
39.04000 301.127
39.21000 268.210
39.38000 238.240
39.55000 253.044
39.72000 244.624
39.89000 237.915
40.06000 230.559
40.23000 229.576
40.40000 229.778
40.57000 215.121
40.74000 213.342
40.91000 225.048
41.08000 227.794
41.25000 221.558
41.42000 211.068
41.59000 205.424
41.76000 225.787
41.93000 208.819
42.10000 228.734
42.27000 232.484
42.44000 227.038
42.61000 209.438
42.78000 209.437
42.95000 214.490
43.12000 200.006
43.29000 209.801
43.46000 199.787
43.63000 204.059
43.80000 190.729
43.97000 191.351
44.14000 199.321
44.31000 199.190
44.48000 208.974
44.65000 216.317
44.82000 244.850
44.99000 234.597
45.16000 247.574
45.33000 208.823
45.50000 208.002
45.67000 198.691
45.84000 180.184
46.01000 187.240
46.18000 175.242
46.35000 178.346
46.52000 175.800
46.69000 178.886
46.86000 181.752
47.03000 171.526
47.20000 163.933
47.37000 160.960
47.54000 171.746
47.71000 175.242
47.88000 154.830
48.05000 162.926
48.22000 155.400
48.39000 169.688
48.56000 158.580
48.73000 164.885
48.90000 160.521
49.07000 148.742
49.24000 162.437
49.41000 146.110
49.58000 155.668
49.75000 157.142
49.92000 163.505
50.09000 149.506
50.26000 159.998
50.43000 162.897
50.60000 168.705
50.77000 165.059
50.94000 162.234
51.11000 157.090
51.28000 152.227
51.45000 151.189
51.62000 132.984
51.79000 147.699
51.96000 148.804
52.13000 144.057
52.30000 144.182
52.47000 146.249
52.64000 134.313
52.81000 142.751
52.98000 144.627
53.15000 144.577
53.32000 157.301
53.49000 137.077
53.66000 150.237
53.83000 149.478
54.00000 148.195
54.17000 136.531
54.34000 148.121
54.51000 145.257
54.68000 150.820
54.85000 144.194
55.02000 150.652
55.19000 161.925
55.36000 171.574
55.53000 201.730
55.70000 284.808
55.87000 352.770
56.04000 343.376
56.21000 246.079
56.38000 186.123
56.55000 156.867
56.72000 134.100
56.89000 139.272
57.06000 127.850
57.23000 129.588
57.40000 136.649
57.57000 128.835
57.74000 130.731
57.91000 123.858
58.08000 116.143
58.25000 121.272
58.42000 116.104
58.59000 125.881
58.76000 125.771
58.93000 118.453
59.10000 123.167
59.27000 118.450
59.44000 117.955
59.61000 117.804
59.78000 106.439
59.95000 121.352
60.12000 117.092
60.29000 121.481
60.46000 123.307
60.63000 115.690
60.80000 122.598
60.97000 126.066
61.14000 126.290
61.31000 125.111
61.48000 139.951
61.65000 285.447
61.82000 188.972
61.99000 135.370
62.16000 130.805
62.33000 127.638
62.50000 130.694
62.67000 126.997
62.84000 131.567
63.01000 130.215
63.18000 137.841
63.35000 134.237
63.52000 134.693
63.69000 137.139
63.86000 141.963
64.03000 151.603
64.20000 161.221
64.37000 157.140
64.54000 171.903
64.71000 159.080
64.88000 186.740
65.05000 190.265
65.22000 220.353
65.39000 250.452
65.56000 314.638
65.73000 1149.846
65.90000 1902.914
66.07000 442.705
66.24000 397.444
66.41000 614.437
66.58000 393.530
66.75000 364.115
66.92000 353.907
67.09000 390.083
67.26000 384.302
67.43000 443.996
67.60000 434.864
67.77000 457.142
67.94000 481.132
68.11000 529.168
68.28000 583.438
68.45000 656.191
68.62000 959.179
68.79000 1685.795
68.96000 12289.173
69.13000 44853.836
69.30000 22473.762
69.47000 4428.809
69.64000 880.629
69.81000 593.130
69.98000 501.955
70.00000 488.484