Folder: Master-Thesis/XRD/08-10-2025 Dep 7/XY Data

File: BTO_Mapping_Theta2Theta_08-10-2025_001_01_0-000_0-000.xy
20.00000 477.914
20.17000 464.320
20.34000 472.587
20.51000 451.271
20.68000 464.831
20.85000 456.954
21.02000 464.150
21.19000 456.405
21.36000 441.681
21.53000 448.119
21.70000 448.807
21.87000 499.667
22.04000 530.803
22.21000 517.293
22.38000 472.003
22.55000 462.350
22.72000 444.393
22.89000 447.009
23.06000 419.521
23.23000 440.436
23.40000 425.116
23.57000 429.445
23.74000 448.557
23.91000 503.635
24.08000 495.282
24.25000 452.483
24.42000 416.211
24.59000 412.773
24.76000 416.841
24.93000 395.497
25.10000 405.848
25.27000 401.104
25.44000 402.381
25.61000 397.503
25.78000 405.195
25.95000 403.891
26.12000 379.314
26.29000 377.995
26.46000 375.411
26.63000 385.213
26.80000 381.171
26.97000 397.867
27.14000 363.737
27.31000 367.188
27.48000 381.663
27.65000 360.800
27.82000 371.544
27.99000 358.213
28.16000 368.269
28.33000 355.169
28.50000 354.255
28.67000 347.101
28.84000 342.441
29.01000 355.014
29.18000 351.280
29.35000 347.742
29.52000 344.994
29.69000 357.988
29.86000 367.944
30.03000 379.513
30.20000 357.668
30.37000 355.319
30.54000 340.704
30.71000 349.580
30.88000 381.620
31.05000 485.018
31.22000 807.256
31.39000 1092.918
31.56000 741.132
31.73000 440.321
31.90000 343.528
32.07000 347.282
32.24000 333.059
32.41000 327.744
32.58000 309.993
32.75000 302.167
32.92000 320.343
33.09000 290.649
33.26000 305.463
33.43000 297.694
33.60000 305.302
33.77000 298.605
33.94000 320.873
34.11000 311.298
34.28000 335.174
34.45000 357.317
34.62000 325.717
34.79000 304.501
34.96000 264.816
35.13000 273.051
35.30000 258.582
35.47000 276.339
35.64000 262.065
35.81000 275.620
35.98000 265.436
36.15000 261.179
36.32000 256.500
36.49000 257.127
36.66000 260.476
36.83000 256.983
37.00000 293.107
37.17000 266.512
37.34000 256.559
37.51000 252.628
37.68000 235.691
37.85000 239.287
38.02000 256.169
38.19000 262.888
38.36000 354.447
38.53000 693.372
38.70000 1175.511
38.87000 824.491
39.04000 325.092
39.21000 245.478
39.38000 250.180
39.55000 227.563
39.72000 216.944
39.89000 224.762
40.06000 229.048
40.23000 220.948
40.40000 210.780
40.57000 219.359
40.74000 207.185
40.91000 210.204
41.08000 209.973
41.25000 206.960
41.42000 203.806
41.59000 208.372
41.76000 207.667
41.93000 208.636
42.10000 211.458
42.27000 219.239
42.44000 221.400
42.61000 201.068
42.78000 214.944
42.95000 201.799
43.12000 206.906
43.29000 196.475
43.46000 201.474
43.63000 190.627
43.80000 189.174
43.97000 196.318
44.14000 193.930
44.31000 192.713
44.48000 210.165
44.65000 218.445
44.82000 237.148
44.99000 260.117
45.16000 265.266
45.33000 236.974
45.50000 211.941
45.67000 203.812
45.84000 192.687
46.01000 191.972
46.18000 171.199
46.35000 180.583
46.52000 177.222
46.69000 164.691
46.86000 172.946
47.03000 176.546
47.20000 177.948
47.37000 161.344
47.54000 169.373
47.71000 170.543
47.88000 166.222
48.05000 161.694
48.22000 164.508
48.39000 174.397
48.56000 154.949
48.73000 151.628
48.90000 147.935
49.07000 161.143
49.24000 152.049
49.41000 155.682
49.58000 154.221
49.75000 155.730
49.92000 145.076
50.09000 150.580
50.26000 150.561
50.43000 164.437
50.60000 162.402
50.77000 165.195
50.94000 155.769
51.11000 163.710
51.28000 160.040
51.45000 155.162
51.62000 143.815
51.79000 133.528
51.96000 144.924
52.13000 132.259
52.30000 139.539
52.47000 148.719
52.64000 137.938
52.81000 136.930
52.98000 141.310
53.15000 147.191
53.32000 158.630
53.49000 152.040
53.66000 151.777
53.83000 144.240
54.00000 142.113
54.17000 146.353
54.34000 137.763
54.51000 139.731
54.68000 151.550
54.85000 148.393
55.02000 146.874
55.19000 167.283
55.36000 170.078
55.53000 250.346
55.70000 417.376
55.87000 676.562
56.04000 609.433
56.21000 369.498
56.38000 201.069
56.55000 160.495
56.72000 134.182
56.89000 142.193
57.06000 130.998
57.23000 133.191
57.40000 122.827
57.57000 121.839
57.74000 116.835
57.91000 126.973
58.08000 126.986
58.25000 121.885
58.42000 126.436
58.59000 124.238
58.76000 128.147
58.93000 120.796
59.10000 114.729
59.27000 117.370
59.44000 115.522
59.61000 127.932
59.78000 119.151
59.95000 109.818
60.12000 118.330
60.29000 117.676
60.46000 115.916
60.63000 115.123
60.80000 122.046
60.97000 119.097
61.14000 121.534
61.31000 129.817
61.48000 131.108
61.65000 283.797
61.82000 192.979
61.99000 138.680
62.16000 127.515
62.33000 116.411
62.50000 129.370
62.67000 127.589
62.84000 125.715
63.01000 118.371
63.18000 123.099
63.35000 120.913
63.52000 137.623
63.69000 142.475
63.86000 142.014
64.03000 143.856
64.20000 140.622
64.37000 143.895
64.54000 151.891
64.71000 163.048
64.88000 163.471
65.05000 192.621
65.22000 221.013
65.39000 242.230
65.56000 312.300
65.73000 944.143
65.90000 1864.597
66.07000 502.609
66.24000 377.008
66.41000 607.340
66.58000 399.007
66.75000 327.512
66.92000 349.628
67.09000 366.035
67.26000 387.757
67.43000 413.503
67.60000 433.099
67.77000 434.712
67.94000 471.932
68.11000 515.327
68.28000 547.137
68.45000 635.408
68.62000 849.577
68.79000 1525.462
68.96000 8248.289
69.13000 43058.473
69.30000 23772.568
69.47000 6108.448
69.64000 909.268
69.81000 622.774
69.98000 506.947
70.00000 493.063

File: BTO_Mapping_Theta2Theta_08-10-2025_001_09_36-542_16-269.xy
20.00000 484.814
20.17000 467.918
20.34000 490.419
20.51000 483.266
20.68000 471.038
20.85000 470.514
21.02000 465.111
21.19000 481.545
21.36000 478.614
21.53000 483.318
21.70000 484.100
21.87000 516.218
22.04000 492.326
22.21000 500.122
22.38000 467.216
22.55000 456.470
22.72000 470.599
22.89000 469.397
23.06000 453.412
23.23000 442.517
23.40000 441.855
23.57000 451.082
23.74000 479.966
23.91000 512.434
24.08000 519.775
24.25000 468.428
24.42000 443.521
24.59000 429.849
24.76000 420.764
24.93000 414.050
25.10000 413.435
25.27000 404.165
25.44000 405.551
25.61000 409.211
25.78000 385.939
25.95000 390.340
26.12000 396.139
26.29000 386.979
26.46000 381.482
26.63000 383.967
26.80000 386.806
26.97000 367.688
27.14000 387.472
27.31000 376.557
27.48000 399.639
27.65000 381.235
27.82000 366.800
27.99000 372.607
28.16000 374.924
28.33000 388.601
28.50000 381.456
28.67000 363.680
28.84000 392.127
29.01000 379.038
29.18000 373.434
29.35000 364.860
29.52000 356.343
29.69000 371.122
29.86000 381.240
30.03000 378.522
30.20000 380.717
30.37000 364.950
30.54000 373.126
30.71000 378.968
30.88000 436.077
31.05000 544.827
31.22000 797.221
31.39000 974.195
31.56000 683.698
31.73000 473.195
31.90000 407.586
32.07000 370.551
32.24000 350.124
32.41000 344.627
32.58000 345.718
32.75000 321.025
32.92000 327.438
33.09000 300.837
33.26000 286.889
33.43000 320.127
33.60000 304.383
33.77000 315.270
33.94000 300.932
34.11000 315.872
34.28000 324.905
34.45000 326.314
34.62000 318.909
34.79000 292.317
34.96000 282.270
35.13000 283.195
35.30000 281.800
35.47000 277.802
35.64000 270.048
35.81000 251.262
35.98000 259.913
36.15000 247.346
36.32000 256.778
36.49000 265.911
36.66000 272.846
36.83000 261.385
37.00000 256.126
37.17000 250.218
37.34000 266.355
37.51000 246.615
37.68000 253.463
37.85000 253.944
38.02000 258.201
38.19000 259.578
38.36000 304.518
38.53000 445.096
38.70000 554.167
38.87000 370.444
39.04000 269.413
39.21000 240.899
39.38000 253.642
39.55000 236.588
39.72000 243.058
39.89000 243.745
40.06000 234.734
40.23000 229.204
40.40000 210.913
40.57000 214.681
40.74000 218.680
40.91000 204.354
41.08000 213.123
41.25000 203.577
41.42000 198.978
41.59000 221.619
41.76000 211.745
41.93000 216.744
42.10000 222.891
42.27000 210.890
42.44000 211.741
42.61000 209.283
42.78000 214.987
42.95000 200.327
43.12000 201.010
43.29000 208.097
43.46000 193.241
43.63000 195.208
43.80000 198.567
43.97000 201.148
44.14000 209.576
44.31000 190.491
44.48000 214.371
44.65000 207.672
44.82000 226.408
44.99000 228.006
45.16000 216.389
45.33000 216.259
45.50000 192.193
45.67000 185.593
45.84000 178.676
46.01000 188.382
46.18000 183.727
46.35000 182.461
46.52000 179.700
46.69000 186.645
46.86000 179.624
47.03000 168.126
47.20000 164.587
47.37000 164.903
47.54000 164.340
47.71000 160.376
47.88000 155.102
48.05000 171.285
48.22000 162.013
48.39000 168.006
48.56000 166.281
48.73000 160.768
48.90000 157.037
49.07000 158.603
49.24000 151.749
49.41000 160.969
49.58000 152.444
49.75000 150.950
49.92000 163.120
50.09000 162.530
50.26000 153.222
50.43000 166.568
50.60000 172.013
50.77000 175.787
50.94000 173.882
51.11000 155.587
51.28000 153.450
51.45000 157.885
51.62000 144.808
51.79000 146.098
51.96000 147.612
52.13000 142.876
52.30000 147.460
52.47000 141.141
52.64000 141.891
52.81000 137.093
52.98000 134.255
53.15000 144.183
53.32000 144.691
53.49000 142.987
53.66000 145.412
53.83000 129.503
54.00000 142.724
54.17000 145.271
54.34000 134.397
54.51000 134.136
54.68000 138.081
54.85000 144.373
55.02000 153.604
55.19000 146.037
55.36000 166.033
55.53000 174.333
55.70000 203.535
55.87000 251.670
56.04000 243.794
56.21000 194.190
56.38000 166.604
56.55000 149.627
56.72000 145.680
56.89000 140.884
57.06000 128.680
57.23000 128.386
57.40000 123.846
57.57000 132.092
57.74000 127.021
57.91000 116.452
58.08000 123.516
58.25000 128.650
58.42000 113.402
58.59000 118.094
58.76000 133.143
58.93000 114.221
59.10000 118.055
59.27000 117.242
59.44000 123.119
59.61000 118.774
59.78000 118.107
59.95000 125.327
60.12000 104.752
60.29000 122.093
60.46000 122.755
60.63000 126.672
60.80000 119.911
60.97000 117.555
61.14000 124.281
61.31000 129.854
61.48000 139.561
61.65000 291.500
61.82000 183.994
61.99000 129.902
62.16000 126.038
62.33000 129.450
62.50000 131.728
62.67000 136.614
62.84000 124.359
63.01000 140.160
63.18000 150.794
63.35000 126.327
63.52000 139.959
63.69000 142.072
63.86000 144.622
64.03000 158.818
64.20000 163.451
64.37000 143.316
64.54000 159.606
64.71000 193.094
64.88000 181.221
65.05000 201.691
65.22000 218.365
65.39000 247.801
65.56000 319.709
65.73000 1154.985
65.90000 1948.503
66.07000 470.146
66.24000 391.858
66.41000 626.105
66.58000 404.451
66.75000 353.791
66.92000 385.672
67.09000 404.928
67.26000 411.081
67.43000 415.608
67.60000 447.825
67.77000 470.137
67.94000 517.343
68.11000 558.731
68.28000 604.488
68.45000 686.819
68.62000 958.971
68.79000 1700.168
68.96000 12023.558
69.13000 46421.809
69.30000 23601.131
69.47000 4820.528
69.64000 907.635
69.81000 636.884
69.98000 503.438
70.00000 494.439

File: BTO_Mapping_Theta2Theta_08-10-2025_001_13_26-765_29-726.xy
20.00000 456.042
20.17000 479.925
20.34000 473.955
20.51000 466.958
20.68000 464.923
20.85000 455.930
21.02000 481.904
21.19000 452.949
21.36000 471.721
21.53000 455.030
21.70000 471.476
21.87000 483.486
22.04000 505.319
22.21000 483.074
22.38000 480.073
22.55000 452.525
22.72000 455.915
22.89000 459.629
23.06000 443.001
23.23000 432.342
23.40000 458.271
23.57000 452.556
23.74000 476.309
23.91000 519.607
24.08000 513.771
24.25000 448.164
24.42000 409.009
24.59000 409.074
24.76000 417.695
24.93000 404.557
25.10000 410.059
25.27000 393.799
25.44000 409.377
25.61000 396.514
25.78000 407.545
25.95000 374.451
26.12000 403.494
26.29000 388.841
26.46000 375.883
26.63000 386.280
26.80000 377.823
26.97000 376.245
27.14000 366.309
27.31000 377.756
27.48000 388.344
27.65000 376.514
27.82000 364.794
27.99000 389.395
28.16000 375.143
28.33000 383.573
28.50000 366.901
28.67000 372.927
28.84000 374.481
29.01000 345.015
29.18000 367.609
29.35000 375.894
29.52000 364.198
29.69000 360.383
29.86000 379.666
30.03000 372.286
30.20000 387.891
30.37000 394.164
30.54000 372.761
30.71000 395.530
30.88000 417.510
31.05000 505.560
31.22000 811.284
31.39000 1025.098
31.56000 725.592
31.73000 454.392
31.90000 394.126
32.07000 374.157
32.24000 357.133
32.41000 334.685
32.58000 334.887
32.75000 314.473
32.92000 316.583
33.09000 321.091
33.26000 291.789
33.43000 297.286
33.60000 296.137
33.77000 285.088
33.94000 316.603
34.11000 329.230
34.28000 333.417
34.45000 328.884
34.62000 303.793
34.79000 288.925
34.96000 260.054
35.13000 264.332
35.30000 266.486
35.47000 279.217
35.64000 263.304
35.81000 259.982
35.98000 259.735
36.15000 252.183
36.32000 265.726
36.49000 259.648
36.66000 252.656
36.83000 251.749
37.00000 279.862
37.17000 255.041
37.34000 261.319
37.51000 259.668
37.68000 253.370
37.85000 258.352
38.02000 253.784
38.19000 268.816
38.36000 299.657
38.53000 428.623
38.70000 570.493
38.87000 415.825
39.04000 272.672
39.21000 259.660
39.38000 242.660
39.55000 248.634
39.72000 234.046
39.89000 238.434
40.06000 230.724
40.23000 222.373
40.40000 225.796
40.57000 229.688
40.74000 212.584
40.91000 204.076
41.08000 205.588
41.25000 215.661
41.42000 220.612
41.59000 205.918
41.76000 210.812
41.93000 218.364
42.10000 226.303
42.27000 207.876
42.44000 210.038
42.61000 221.899
42.78000 207.224
42.95000 204.324
43.12000 204.261
43.29000 190.199
43.46000 200.382
43.63000 196.618
43.80000 201.436
43.97000 208.355
44.14000 202.754
44.31000 200.520
44.48000 215.507
44.65000 216.431
44.82000 209.684
44.99000 228.808
45.16000 226.477
45.33000 210.557
45.50000 198.215
45.67000 185.258
45.84000 188.947
46.01000 176.922
46.18000 170.127
46.35000 169.611
46.52000 180.737
46.69000 174.317
46.86000 182.404
47.03000 174.220
47.20000 166.850
47.37000 167.640
47.54000 173.540
47.71000 159.706
47.88000 155.142
48.05000 162.286
48.22000 174.077
48.39000 162.646
48.56000 165.742
48.73000 159.631
48.90000 157.811
49.07000 161.667
49.24000 160.844
49.41000 157.312
49.58000 149.877
49.75000 144.358
49.92000 154.532
50.09000 167.491
50.26000 156.876
50.43000 163.443
50.60000 175.444
50.77000 180.160
50.94000 158.313
51.11000 135.331
51.28000 154.403
51.45000 141.787
51.62000 149.063
51.79000 138.525
51.96000 135.997
52.13000 147.475
52.30000 138.135
52.47000 151.988
52.64000 139.984
52.81000 137.517
52.98000 144.748
53.15000 140.914
53.32000 149.214
53.49000 136.207
53.66000 135.767
53.83000 144.062
54.00000 135.464
54.17000 135.892
54.34000 131.312
54.51000 135.492
54.68000 137.351
54.85000 135.638
55.02000 145.684
55.19000 143.359
55.36000 154.842
55.53000 190.939
55.70000 202.969
55.87000 273.220
56.04000 253.332
56.21000 207.920
56.38000 173.116
56.55000 143.089
56.72000 136.561
56.89000 133.828
57.06000 142.654
57.23000 140.144
57.40000 133.831
57.57000 127.150
57.74000 126.604
57.91000 133.397
58.08000 122.398
58.25000 125.560
58.42000 128.735
58.59000 125.477
58.76000 127.422
58.93000 121.071
59.10000 114.290
59.27000 121.494
59.44000 122.342
59.61000 121.953
59.78000 125.944
59.95000 114.925
60.12000 126.358
60.29000 116.830
60.46000 124.900
60.63000 112.545
60.80000 118.029
60.97000 124.713
61.14000 133.070
61.31000 127.540
61.48000 141.038
61.65000 302.114
61.82000 187.179
61.99000 128.221
62.16000 123.946
62.33000 131.142
62.50000 136.631
62.67000 133.971
62.84000 131.175
63.01000 126.204
63.18000 142.656
63.35000 136.543
63.52000 139.616
63.69000 137.921
63.86000 146.731
64.03000 148.338
64.20000 158.316
64.37000 153.749
64.54000 168.919
64.71000 169.232
64.88000 187.951
65.05000 192.306
65.22000 222.003
65.39000 248.998
65.56000 324.236
65.73000 1063.308
65.90000 1960.924
66.07000 471.169
66.24000 408.343
66.41000 640.664
66.58000 419.643
66.75000 358.537
66.92000 382.219
67.09000 380.392
67.26000 418.092
67.43000 440.185
67.60000 434.242
67.77000 462.651
67.94000 511.928
68.11000 533.438
68.28000 596.862
68.45000 677.846
68.62000 945.084
68.79000 1653.059
68.96000 10569.837
69.13000 45904.883
69.30000 23953.154
69.47000 5378.756
69.64000 931.391
69.81000 627.386
69.98000 504.120
70.00000 495.093

File: BTO_Mapping_Theta2Theta_08-10-2025_001_14_3-090_9-511.xy
20.00000 476.987
20.17000 470.047
20.34000 473.331
20.51000 456.003
20.68000 472.139
20.85000 473.663
21.02000 471.895
21.19000 472.545
21.36000 462.396
21.53000 455.587
21.70000 472.846
21.87000 489.956
22.04000 544.771
22.21000 522.479
22.38000 459.262
22.55000 423.743
22.72000 436.573
22.89000 442.656
23.06000 450.226
23.23000 441.293
23.40000 424.241
23.57000 428.872
23.74000 462.960
23.91000 495.882
24.08000 493.980
24.25000 464.731
24.42000 428.196
24.59000 407.162
24.76000 405.926
24.93000 402.717
25.10000 395.544
25.27000 404.529
25.44000 390.018
25.61000 392.864
25.78000 397.536
25.95000 379.485
26.12000 390.263
26.29000 394.366
26.46000 383.324
26.63000 382.902
26.80000 377.521
26.97000 366.339
27.14000 360.741
27.31000 374.087
27.48000 359.597
27.65000 360.634
27.82000 364.746
27.99000 369.952
28.16000 355.660
28.33000 376.527
28.50000 362.345
28.67000 353.701
28.84000 365.097
29.01000 378.467
29.18000 360.330
29.35000 345.445
29.52000 354.993
29.69000 361.482
29.86000 370.885
30.03000 378.834
30.20000 374.167
30.37000 354.134
30.54000 364.468
30.71000 376.498
30.88000 406.115
31.05000 484.151
31.22000 828.611
31.39000 1218.435
31.56000 834.861
31.73000 482.504
31.90000 370.896
32.07000 332.602
32.24000 333.724
32.41000 318.308
32.58000 323.995
32.75000 318.046
32.92000 315.970
33.09000 327.657
33.26000 300.034
33.43000 304.055
33.60000 307.817
33.77000 301.754
33.94000 312.531
34.11000 329.092
34.28000 345.625
34.45000 360.892
34.62000 333.066
34.79000 302.582
34.96000 283.936
35.13000 275.062
35.30000 279.181
35.47000 266.481
35.64000 263.361
35.81000 258.614
35.98000 254.963
36.15000 241.930
36.32000 254.059
36.49000 259.023
36.66000 244.087
36.83000 268.273
37.00000 284.357
37.17000 280.653
37.34000 259.001
37.51000 257.173
37.68000 259.427
37.85000 236.354
38.02000 256.350
38.19000 258.876
38.36000 305.114
38.53000 607.255
38.70000 1051.141
38.87000 789.030
39.04000 334.872
39.21000 260.505
39.38000 226.876
39.55000 245.300
39.72000 227.999
39.89000 234.146
40.06000 227.607
40.23000 220.282
40.40000 220.263
40.57000 230.828
40.74000 211.435
40.91000 218.149
41.08000 209.924
41.25000 201.581
41.42000 209.478
41.59000 212.057
41.76000 216.597
41.93000 216.522
42.10000 218.518
42.27000 225.786
42.44000 218.958
42.61000 210.278
42.78000 199.421
42.95000 205.658
43.12000 198.863
43.29000 192.528
43.46000 196.881
43.63000 199.689
43.80000 197.331
43.97000 197.967
44.14000 186.729
44.31000 189.705
44.48000 216.176
44.65000 216.918
44.82000 231.957
44.99000 246.218
45.16000 258.332
45.33000 224.420
45.50000 208.514
45.67000 191.511
45.84000 182.496
46.01000 173.155
46.18000 167.066
46.35000 177.983
46.52000 169.601
46.69000 173.582
46.86000 176.642
47.03000 171.286
47.20000 171.468
47.37000 166.309
47.54000 162.784
47.71000 162.844
47.88000 157.186
48.05000 160.442
48.22000 163.097
48.39000 164.374
48.56000 160.464
48.73000 157.970
48.90000 160.018
49.07000 155.851
49.24000 151.486
49.41000 150.037
49.58000 150.342
49.75000 161.756
49.92000 145.111
50.09000 155.432
50.26000 147.497
50.43000 156.570
50.60000 160.847
50.77000 155.960
50.94000 157.394
51.11000 147.283
51.28000 151.719
51.45000 133.218
51.62000 148.768
51.79000 147.285
51.96000 141.374
52.13000 145.781
52.30000 136.795
52.47000 141.424
52.64000 132.125
52.81000 129.650
52.98000 139.442
53.15000 146.029
53.32000 146.189
53.49000 151.030
53.66000 147.297
53.83000 147.783
54.00000 141.960
54.17000 138.759
54.34000 146.916
54.51000 144.553
54.68000 146.751
54.85000 150.316
55.02000 155.716
55.19000 146.169
55.36000 166.066
55.53000 216.301
55.70000 348.927
55.87000 590.982
56.04000 583.680
56.21000 353.782
56.38000 200.362
56.55000 157.190
56.72000 148.943
56.89000 122.769
57.06000 132.949
57.23000 122.546
57.40000 129.496
57.57000 129.148
57.74000 121.713
57.91000 129.600
58.08000 116.108
58.25000 122.296
58.42000 119.473
58.59000 120.090
58.76000 104.952
58.93000 117.852
59.10000 114.486
59.27000 113.006
59.44000 120.882
59.61000 116.744
59.78000 114.864
59.95000 126.595
60.12000 108.745
60.29000 124.884
60.46000 116.529
60.63000 117.952
60.80000 116.502
60.97000 121.328
61.14000 123.416
61.31000 121.906
61.48000 130.734
61.65000 272.035
61.82000 193.320
61.99000 142.395
62.16000 128.626
62.33000 125.959
62.50000 133.348
62.67000 125.169
62.84000 137.402
63.01000 128.552
63.18000 138.364
63.35000 139.660
63.52000 132.095
63.69000 142.516
63.86000 142.009
64.03000 144.752
64.20000 148.741
64.37000 151.098
64.54000 166.149
64.71000 174.422
64.88000 184.944
65.05000 200.357
65.22000 211.800
65.39000 246.896
65.56000 321.217
65.73000 931.919
65.90000 1864.782
66.07000 512.193
66.24000 379.003
66.41000 593.845
66.58000 414.379
66.75000 342.281
66.92000 346.698
67.09000 366.421
67.26000 394.208
67.43000 415.332
67.60000 418.909
67.77000 458.459
67.94000 488.065
68.11000 500.680
68.28000 545.304
68.45000 623.905
68.62000 859.361
68.79000 1526.807
68.96000 7822.085
69.13000 42100.801
69.30000 23356.797
69.47000 6152.872
69.64000 910.321
69.81000 605.217
69.98000 518.836
70.00000 502.841

File: BTO_Mapping_Theta2Theta_08-10-2025_001_16_9-271_28-532.xy
20.00000 483.066
20.17000 473.995
20.34000 466.895
20.51000 479.253
20.68000 475.042
20.85000 470.684
21.02000 462.592
21.19000 482.895
21.36000 468.562
21.53000 476.461
21.70000 484.458
21.87000 477.880
22.04000 515.883
22.21000 503.355
22.38000 470.060
22.55000 461.531
22.72000 453.824
22.89000 437.862
23.06000 452.181
23.23000 448.947
23.40000 442.810
23.57000 448.165
23.74000 469.487
23.91000 521.956
24.08000 539.512
24.25000 485.170
24.42000 418.527
24.59000 429.681
24.76000 403.778
24.93000 399.788
25.10000 400.860
25.27000 405.588
25.44000 401.757
25.61000 396.290
25.78000 391.923
25.95000 390.879
26.12000 381.014
26.29000 391.554
26.46000 393.593
26.63000 377.325
26.80000 385.305
26.97000 376.548
27.14000 367.130
27.31000 378.070
27.48000 368.407
27.65000 369.500
27.82000 379.032
27.99000 371.193
28.16000 352.656
28.33000 378.525
28.50000 354.977
28.67000 363.537
28.84000 362.717
29.01000 353.817
29.18000 359.246
29.35000 351.536
29.52000 357.427
29.69000 353.786
29.86000 369.569
30.03000 383.758
30.20000 359.433
30.37000 380.789
30.54000 370.157
30.71000 371.915
30.88000 391.764
31.05000 509.840
31.22000 798.138
31.39000 1078.596
31.56000 790.586
31.73000 488.010
31.90000 369.843
32.07000 363.385
32.24000 351.309
32.41000 336.499
32.58000 312.231
32.75000 337.325
32.92000 312.806
33.09000 310.623
33.26000 299.507
33.43000 307.992
33.60000 290.407
33.77000 302.795
33.94000 315.462
34.11000 318.614
34.28000 341.670
34.45000 364.739
34.62000 306.585
34.79000 283.090
34.96000 279.444
35.13000 251.420
35.30000 274.869
35.47000 267.575
35.64000 267.375
35.81000 257.071
35.98000 262.689
36.15000 260.613
36.32000 255.573
36.49000 276.182
36.66000 259.046
36.83000 258.327
37.00000 272.952
37.17000 271.919
37.34000 274.560
37.51000 244.354
37.68000 243.994
37.85000 233.798
38.02000 259.139
38.19000 266.744
38.36000 298.924
38.53000 492.827
38.70000 786.977
38.87000 587.684
39.04000 310.565
39.21000 256.164
39.38000 257.902
39.55000 244.951
39.72000 223.647
39.89000 226.068
40.06000 241.550
40.23000 224.975
40.40000 226.969
40.57000 215.903
40.74000 218.754
40.91000 212.003
41.08000 216.500
41.25000 201.069
41.42000 209.317
41.59000 209.016
41.76000 215.652
41.93000 212.153
42.10000 224.116
42.27000 210.061
42.44000 221.488
42.61000 213.002
42.78000 207.785
42.95000 207.929
43.12000 211.865
43.29000 193.782
43.46000 207.728
43.63000 201.748
43.80000 195.653
43.97000 180.764
44.14000 198.230
44.31000 209.417
44.48000 207.573
44.65000 206.538
44.82000 219.396
44.99000 228.127
45.16000 225.083
45.33000 237.109
45.50000 202.494
45.67000 204.939
45.84000 188.909
46.01000 175.154
46.18000 179.389
46.35000 176.425
46.52000 169.894
46.69000 178.398
46.86000 172.993
47.03000 180.664
47.20000 163.316
47.37000 163.096
47.54000 166.443
47.71000 171.005
47.88000 161.320
48.05000 163.451
48.22000 164.973
48.39000 155.533
48.56000 156.345
48.73000 158.481
48.90000 153.605
49.07000 160.715
49.24000 152.386
49.41000 160.661
49.58000 155.075
49.75000 135.424
49.92000 146.370
50.09000 168.298
50.26000 146.939
50.43000 161.333
50.60000 168.051
50.77000 160.971
50.94000 149.684
51.11000 155.284
51.28000 150.196
51.45000 144.429
51.62000 153.907
51.79000 151.657
51.96000 136.705
52.13000 140.633
52.30000 146.811
52.47000 138.576
52.64000 149.155
52.81000 144.575
52.98000 141.330
53.15000 135.423
53.32000 138.357
53.49000 146.339
53.66000 141.236
53.83000 146.787
54.00000 147.185
54.17000 141.007
54.34000 124.244
54.51000 141.736
54.68000 136.630
54.85000 156.363
55.02000 156.163
55.19000 143.850
55.36000 181.965
55.53000 194.741
55.70000 272.827
55.87000 398.992
56.04000 387.887
56.21000 264.697
56.38000 202.801
56.55000 158.358
56.72000 139.645
56.89000 135.661
57.06000 135.696
57.23000 136.594
57.40000 132.228
57.57000 127.549
57.74000 126.371
57.91000 134.730
58.08000 133.732
58.25000 118.068
58.42000 117.210
58.59000 116.270
58.76000 122.644
58.93000 126.764
59.10000 125.509
59.27000 119.298
59.44000 114.314
59.61000 119.510
59.78000 122.537
59.95000 122.503
60.12000 119.250
60.29000 122.587
60.46000 115.910
60.63000 117.931
60.80000 118.444
60.97000 113.334
61.14000 125.779
61.31000 138.399
61.48000 131.333
61.65000 275.188
61.82000 192.225
61.99000 135.074
62.16000 136.571
62.33000 134.475
62.50000 122.871
62.67000 127.546
62.84000 130.531
63.01000 138.773
63.18000 126.290
63.35000 136.676
63.52000 138.440
63.69000 144.520
63.86000 139.136
64.03000 145.321
64.20000 148.665
64.37000 154.748
64.54000 168.360
64.71000 160.933
64.88000 174.022
65.05000 187.686
65.22000 213.120
65.39000 249.500
65.56000 313.314
65.73000 962.447
65.90000 1944.534
66.07000 512.837
66.24000 381.296
66.41000 608.250
66.58000 412.468
66.75000 345.959
66.92000 359.316
67.09000 384.374
67.26000 392.606
67.43000 401.757
67.60000 434.843
67.77000 480.399
67.94000 477.209
68.11000 531.708
68.28000 560.240
68.45000 658.359
68.62000 906.779
68.79000 1598.042
68.96000 8336.895
69.13000 43684.590
69.30000 24147.096
69.47000 6285.924
69.64000 929.094
69.81000 617.148
69.98000 489.454
70.00000 490.893