Folder: Master-Thesis/XRD/11-09-2025/XY Data (part 3)

File: 01092025_BTO_omega_0_5_001_20_-5-563_24-373.xy
20.00000 18.327
20.16000 18.303
20.32000 15.107
20.48000 24.128
20.64000 15.186
20.80000 24.310
20.96000 15.187
21.12000 17.219
21.28000 22.410
21.44000 20.160
21.60000 21.444
21.76000 25.628
21.92000 18.292
22.08000 31.580
22.24000 33.356
22.40000 29.236
22.56000 22.190
22.72000 22.277
22.88000 23.330
23.04000 28.267
23.20000 23.298
23.36000 23.345
23.52000 32.505
23.68000 41.584
23.84000 33.631
24.00000 31.420
24.16000 43.689
24.32000 31.448
24.48000 39.509
24.64000 36.287
24.80000 31.437
24.96000 44.399
25.12000 43.262
25.28000 45.692
25.44000 37.475
25.60000 42.278
25.76000 41.400
25.92000 41.469
26.08000 41.474
26.24000 53.715
26.40000 45.379
26.56000 66.882
26.72000 73.216
26.88000 52.770
27.04000 64.041
27.20000 67.815
27.36000 62.807
27.52000 61.874
27.68000 56.988
27.84000 50.520
28.00000 68.508
28.16000 52.703
28.32000 64.587
28.48000 57.730
28.64000 56.820
28.80000 64.412
28.96000 64.779
29.12000 64.235
29.28000 51.720
29.44000 45.865
29.60000 50.649
29.76000 52.904
29.92000 41.585
30.08000 50.559
30.24000 40.686
30.40000 32.669
30.56000 36.680
30.72000 38.771
30.88000 38.473
31.04000 28.306
31.20000 31.341
31.36000 37.587
31.52000 34.591
31.68000 36.668
31.84000 29.299
32.00000 32.321
32.16000 30.532
32.32000 34.376
32.48000 31.300
32.64000 28.367
32.80000 35.214
32.96000 25.256
33.12000 23.158
33.28000 29.646
33.44000 21.299
33.60000 27.258
33.76000 15.276
33.92000 12.328
34.08000 20.412
34.24000 20.226
34.40000 24.304
34.56000 28.473
34.72000 21.307
34.88000 17.147
35.04000 13.110
35.20000 25.328
35.36000 15.160
35.52000 11.265
35.68000 23.178
35.84000 15.239
36.00000 15.076
36.16000 31.321
36.32000 14.119
36.48000 11.176
36.64000 20.180
36.80000 21.279
36.96000 18.375
37.12000 15.319
37.28000 23.268
37.44000 21.380
37.60000 24.095
37.76000 23.188
37.92000 20.263
38.08000 16.231
38.24000 23.197
38.40000 11.164
38.56000 23.224
38.72000 22.230
38.88000 23.260
39.04000 26.580
39.20000 19.290
39.36000 21.460
39.52000 13.154
39.68000 29.440
39.84000 17.280
40.00000 16.105
40.16000 23.496
40.32000 19.225
40.48000 25.373
40.64000 29.063
40.80000 30.451
40.96000 16.407
41.12000 23.290
41.28000 13.103
41.44000 13.095
41.60000 26.367
41.76000 18.446
41.92000 25.529
42.08000 24.235
42.24000 17.282
42.40000 17.193
42.56000 16.245
42.72000 24.314
42.88000 23.167
43.04000 23.334
43.20000 25.346
43.36000 23.221
43.52000 33.499
43.68000 18.278
43.84000 23.276
44.00000 18.121
44.16000 25.511
44.32000 19.465
44.48000 21.218
44.64000 19.214
44.80000 19.214
44.96000 22.214
45.12000 20.377
45.28000 23.558
45.44000 24.500
45.60000 26.367
45.76000 19.113
45.92000 22.109
46.08000 12.219
46.24000 17.343
46.40000 25.559
46.56000 22.047
46.72000 18.363
46.88000 12.131
47.04000 21.236
47.20000 22.261
47.36000 15.127
47.52000 14.153
47.68000 16.190
47.84000 21.389
48.00000 20.436
48.16000 21.213
48.32000 20.398
48.48000 14.027
48.64000 22.420
48.80000 18.313
48.96000 18.182
49.12000 21.469
49.28000 21.228
49.44000 8.942
49.60000 14.037
49.76000 10.132
49.92000 18.196
50.08000 22.146
50.24000 15.193
50.40000 21.164
50.56000 14.316
50.72000 16.273
50.88000 15.172
51.04000 18.165
51.20000 20.180
51.36000 17.109
51.52000 18.041
51.68000 19.293
51.84000 15.180
52.00000 11.145
52.16000 18.109
52.32000 25.262
52.48000 18.337
52.64000 11.225
52.80000 12.078
52.96000 23.223
53.12000 12.992
53.28000 18.193
53.44000 13.114
53.60000 12.212
53.76000 12.006
53.92000 14.256
54.08000 25.401
54.24000 16.323
54.40000 14.228
54.56000 10.984
54.72000 16.289
54.88000 10.145
55.04000 16.265
55.20000 13.226
55.36000 13.180
55.52000 6.980
55.68000 11.123
55.84000 11.087
56.00000 10.203
56.16000 11.107
56.32000 22.242
56.48000 13.174
56.64000 15.390
56.80000 13.111
56.96000 10.192
57.12000 10.112
57.28000 6.093
57.44000 13.143
57.60000 10.054
57.76000 14.200
57.92000 14.320
58.08000 12.107
58.24000 12.170
58.40000 18.318
58.56000 10.160
58.72000 10.103
58.88000 7.113
59.04000 12.096
59.20000 13.115
59.36000 9.147
59.52000 8.083
59.68000 9.178
59.84000 8.099
60.00000 9.118
60.16000 6.069
60.32000 12.326
60.48000 5.124
60.64000 13.220
60.80000 13.242
60.96000 8.030
61.12000 10.103
61.28000 6.117
61.44000 14.162
61.60000 11.185
61.76000 10.168
61.92000 7.036
62.08000 9.136
62.24000 10.280
62.40000 7.983
62.56000 7.049
62.72000 8.179
62.88000 8.024
63.04000 7.015
63.20000 18.287
63.36000 10.154
63.52000 7.038
63.68000 6.143
63.84000 7.166
64.00000 10.122
64.16000 14.979
64.32000 11.094
64.48000 9.040
64.64000 6.073
64.80000 12.141
64.96000 16.089
65.00000 5.018

File: 01092025_BTO_omega_0_5_001_24_-8-345_36-560.xy
20.00000 17.297
20.16000 19.270
20.32000 24.182
20.48000 13.066
20.64000 9.096
20.80000 15.466
20.96000 22.353
21.12000 17.057
21.28000 23.278
21.44000 23.111
21.60000 22.458
21.76000 22.463
21.92000 27.300
22.08000 27.275
22.24000 23.570
22.40000 24.098
22.56000 26.269
22.72000 22.333
22.88000 27.340
23.04000 29.289
23.20000 23.400
23.36000 27.315
23.52000 25.273
23.68000 23.254
23.84000 33.354
24.00000 32.252
24.16000 28.407
24.32000 42.672
24.48000 39.693
24.64000 33.270
24.80000 30.166
24.96000 35.509
25.12000 40.460
25.28000 44.416
25.44000 47.583
25.60000 42.436
25.76000 56.728
25.92000 49.596
26.08000 63.851
26.24000 54.636
26.40000 62.582
26.56000 52.816
26.72000 53.723
26.88000 43.592
27.04000 62.842
27.20000 52.587
27.36000 57.777
27.52000 62.259
27.68000 67.728
27.84000 61.752
28.00000 66.008
28.16000 48.799
28.32000 53.609
28.48000 60.649
28.64000 59.807
28.80000 59.958
28.96000 51.606
29.12000 53.838
29.28000 52.451
29.44000 54.550
29.60000 49.511
29.76000 42.412
29.92000 53.672
30.08000 48.479
30.24000 40.445
30.40000 41.540
30.56000 51.834
30.72000 43.517
30.88000 30.397
31.04000 34.641
31.20000 32.367
31.36000 28.290
31.52000 23.115
31.68000 42.793
31.84000 22.430
32.00000 24.305
32.16000 29.402
32.32000 36.632
32.48000 37.498
32.64000 17.392
32.80000 20.260
32.96000 26.299
33.12000 20.192
33.28000 26.449
33.44000 20.332
33.60000 17.238
33.76000 14.104
33.92000 17.266
34.08000 16.278
34.24000 23.180
34.40000 18.365
34.56000 29.660
34.72000 8.060
34.88000 6.985
35.04000 19.104
35.20000 17.260
35.36000 16.203
35.52000 21.351
35.68000 24.317
35.84000 16.171
36.00000 14.145
36.16000 19.071
36.32000 28.452
36.48000 18.191
36.64000 18.073
36.80000 23.346
36.96000 19.284
37.12000 18.297
37.28000 16.213
37.44000 23.228
37.60000 14.275
37.76000 23.249
37.92000 17.243
38.08000 23.371
38.24000 20.274
38.40000 15.270
38.56000 19.182
38.72000 19.163
38.88000 19.190
39.04000 15.118
39.20000 14.375
39.36000 23.661
39.52000 21.290
39.68000 18.417
39.84000 20.272
40.00000 14.197
40.16000 23.162
40.32000 22.270
40.48000 23.147
40.64000 19.376
40.80000 21.401
40.96000 25.523
41.12000 23.403
41.28000 15.291
41.44000 25.240
41.60000 25.406
41.76000 28.486
41.92000 26.166
42.08000 24.351
42.24000 14.232
42.40000 17.195
42.56000 27.255
42.72000 21.244
42.88000 21.224
43.04000 25.445
43.20000 24.367
43.36000 12.167
43.52000 19.262
43.68000 17.168
43.84000 17.254
44.00000 15.200
44.16000 24.448
44.32000 18.249
44.48000 24.419
44.64000 25.282
44.80000 21.220
44.96000 28.458
45.12000 20.267
45.28000 24.279
45.44000 18.152
45.60000 21.506
45.76000 20.320
45.92000 16.399
46.08000 24.259
46.24000 19.272
46.40000 22.442
46.56000 18.128
46.72000 26.142
46.88000 15.217
47.04000 32.496
47.20000 12.374
47.36000 27.223
47.52000 18.344
47.68000 19.449
47.84000 19.131
48.00000 16.200
48.16000 17.243
48.32000 22.311
48.48000 18.197
48.64000 19.356
48.80000 21.381
48.96000 20.075
49.12000 18.210
49.28000 16.130
49.44000 20.278
49.60000 16.062
49.76000 20.263
49.92000 16.169
50.08000 21.174
50.24000 12.332
50.40000 21.327
50.56000 18.253
50.72000 19.359
50.88000 11.215
51.04000 17.363
51.20000 18.374
51.36000 19.337
51.52000 25.368
51.68000 11.045
51.84000 13.020
52.00000 14.114
52.16000 15.277
52.32000 10.023
52.48000 16.297
52.64000 10.131
52.80000 20.400
52.96000 19.441
53.12000 24.276
53.28000 24.311
53.44000 11.959
53.60000 17.088
53.76000 16.149
53.92000 16.305
54.08000 19.226
54.24000 23.379
54.40000 16.114
54.56000 19.323
54.72000 11.280
54.88000 12.135
55.04000 12.298
55.20000 19.142
55.36000 8.146
55.52000 10.174
55.68000 16.172
55.84000 17.244
56.00000 12.185
56.16000 15.944
56.32000 18.489
56.48000 16.323
56.64000 12.115
56.80000 12.164
56.96000 10.968
57.12000 15.256
57.28000 9.125
57.44000 14.003
57.60000 15.287
57.76000 10.092
57.92000 18.113
58.08000 11.096
58.24000 15.370
58.40000 12.079
58.56000 9.144
58.72000 17.163
58.88000 15.202
59.04000 13.172
59.20000 12.225
59.36000 17.372
59.52000 8.172
59.68000 16.121
59.84000 8.983
60.00000 6.036
60.16000 13.145
60.32000 6.972
60.48000 6.109
60.64000 10.095
60.80000 15.128
60.96000 11.070
61.12000 11.061
61.28000 5.044
61.44000 12.213
61.60000 7.042
61.76000 9.087
61.92000 12.154
62.08000 3.069
62.24000 7.030
62.40000 6.015
62.56000 4.154
62.72000 8.118
62.88000 8.078
63.04000 11.133
63.20000 4.055
63.36000 16.327
63.52000 11.011
63.68000 6.099
63.84000 6.135
64.00000 8.131
64.16000 10.233
64.32000 10.150
64.48000 6.970
64.64000 13.158
64.80000 9.022
64.96000 6.995
65.00000 7.948

File: 01092025_BTO_omega_0_5_001_28_-11-126_48-746.xy
20.00000 8.117
20.16000 10.113
20.32000 17.156
20.48000 6.039
20.64000 13.204
20.80000 15.197
20.96000 12.087
21.12000 10.218
21.28000 14.028
21.44000 9.103
21.60000 16.338
21.76000 6.049
21.92000 19.316
22.08000 16.383
22.24000 9.225
22.40000 12.086
22.56000 11.171
22.72000 9.008
22.88000 9.055
23.04000 14.146
23.20000 7.160
23.36000 9.049
23.52000 11.147
23.68000 7.165
23.84000 9.121
24.00000 8.124
24.16000 20.227
24.32000 8.144
24.48000 12.273
24.64000 11.134
24.80000 10.183
24.96000 16.142
25.12000 9.203
25.28000 5.069
25.44000 12.315
25.60000 7.994
25.76000 10.013
25.92000 11.176
26.08000 6.046
26.24000 8.184
26.40000 11.170
26.56000 12.173
26.72000 13.220
26.88000 10.053
27.04000 9.082
27.20000 6.122
27.36000 6.999
27.52000 10.235
27.68000 7.977
27.84000 6.056
28.00000 7.112
28.16000 8.094
28.32000 5.136
28.48000 10.113
28.64000 8.164
28.80000 8.027
28.96000 10.193
29.12000 11.032
29.28000 8.066
29.44000 9.201
29.60000 5.086
29.76000 13.070
29.92000 7.123
30.08000 7.968
30.24000 6.104
30.40000 6.077
30.56000 8.207
30.72000 7.090
30.88000 6.141
31.04000 10.158
31.20000 9.173
31.36000 8.121
31.52000 7.082
31.68000 8.188
31.84000 6.139
32.00000 9.112
32.16000 3.052
32.32000 3.011
32.48000 4.199
32.64000 7.996
32.80000 4.161
32.96000 8.164
33.12000 5.070
33.28000 3.074
33.44000 4.058
33.60000 6.106
33.76000 7.188
33.92000 8.105
34.08000 7.101
34.24000 6.175
34.40000 5.118
34.56000 2.037
34.72000 7.206
34.88000 1.978
35.04000 5.025
35.20000 3.014
35.36000 8.141
35.52000 5.066
35.68000 5.092
35.84000 2.085
36.00000 7.134
36.16000 3.063
36.32000 2.021
36.48000 3.033
36.64000 4.088
36.80000 1.000
36.96000 2.036
37.12000 8.089
37.28000 8.130
37.44000 6.062
37.60000 5.099
37.76000 6.000
37.92000 4.028
38.08000 3.042
38.24000 1.999
38.40000 4.051
38.56000 3.099
38.72000 5.016
38.88000 9.278
39.04000 5.065
39.20000 4.003
39.36000 1.977
39.52000 3.011
39.68000 8.056
39.84000 5.011
40.00000 9.059
40.16000 5.049
40.32000 5.089
40.48000 4.105
40.64000 6.009
40.80000 7.986
40.96000 2.017
41.12000 4.168
41.28000 2.986
41.44000 3.086
41.60000 1.044
41.76000 4.147
41.92000 7.114
42.08000 8.081
42.24000 6.115
42.40000 3.044
42.56000 3.056
42.72000 5.092
42.88000 1.026
43.04000 3.017
43.20000 7.010
43.36000 4.099
43.52000 5.018
43.68000 4.140
43.84000 4.039
44.00000 7.138
44.16000 6.055
44.32000 7.000
44.48000 3.028
44.64000 5.078
44.80000 0.000
44.96000 4.008
45.12000 3.062
45.28000 5.017
45.44000 5.074
45.60000 6.188
45.76000 2.078
45.92000 6.156
46.08000 5.072
46.24000 1.047
46.40000 3.046
46.56000 0.000
46.72000 2.030
46.88000 6.199
47.04000 2.047
47.20000 1.051
47.36000 5.141
47.52000 4.047
47.68000 9.043
47.84000 3.020
48.00000 10.187
48.16000 4.083
48.32000 2.945
48.48000 3.013
48.64000 6.016
48.80000 5.030
48.96000 6.143
49.12000 4.081
49.28000 5.039
49.44000 9.218
49.60000 7.022
49.76000 2.047
49.92000 5.113
50.08000 6.071
50.24000 6.000
50.40000 5.112
50.56000 9.160
50.72000 5.175
50.88000 2.976
51.04000 3.031
51.20000 6.086
51.36000 6.143
51.52000 3.059
51.68000 5.009
51.84000 8.064
52.00000 4.986
52.16000 8.097
52.32000 2.955
52.48000 6.003
52.64000 6.123
52.80000 3.007
52.96000 0.990
53.12000 5.015
53.28000 4.097
53.44000 10.150
53.60000 6.146
53.76000 2.025
53.92000 1.995
54.08000 3.986
54.24000 4.157
54.40000 3.050
54.56000 5.091
54.72000 5.049
54.88000 2.949
55.04000 0.985
55.20000 8.265
55.36000 2.989
55.52000 2.031
55.68000 3.031
55.84000 5.165
56.00000 4.064
56.16000 4.076
56.32000 5.127
56.48000 5.101
56.64000 3.024
56.80000 4.084
56.96000 4.103
57.12000 9.074
57.28000 5.120
57.44000 6.101
57.60000 2.023
57.76000 6.064
57.92000 2.059
58.08000 4.044
58.24000 5.154
58.40000 0.995
58.56000 4.040
58.72000 0.000
58.88000 2.037
59.04000 6.082
59.20000 1.046
59.36000 1.000
59.52000 2.021
59.68000 3.100
59.84000 4.024
60.00000 2.007
60.16000 0.000
60.32000 5.087
60.48000 6.159
60.64000 4.044
60.80000 3.040
60.96000 0.000
61.12000 6.159
61.28000 1.010
61.44000 5.097
61.60000 2.049
61.76000 3.074
61.92000 0.000
62.08000 3.063
62.24000 1.043
62.40000 1.029
62.56000 0.000
62.72000 5.071
62.88000 0.000
63.04000 1.979
63.20000 6.080
63.36000 2.008
63.52000 4.079
63.68000 3.000
63.84000 8.114
64.00000 4.079
64.16000 3.061
64.32000 2.020
64.48000 2.045
64.64000 0.000
64.80000 4.144
64.96000 1.946
65.00000 4.030

File: 01092025_BTO_omega_1_001_13_15-587_-19-546.xy
20.00000 171.658
20.16000 172.277
20.32000 156.673
20.48000 164.708
20.64000 142.504
20.80000 133.650
20.96000 130.550
21.12000 130.496
21.28000 103.162
21.44000 100.164
21.60000 114.230
21.76000 108.199
21.92000 86.967
22.08000 97.209
22.24000 90.912
22.40000 89.652
22.56000 70.707
22.72000 57.627
22.88000 44.382
23.04000 53.360
23.20000 57.663
23.36000 39.454
23.52000 59.636
23.68000 40.526
23.84000 34.478
24.00000 31.615
24.16000 32.208
24.32000 33.307
24.48000 24.330
24.64000 17.383
24.80000 36.345
24.96000 26.219
25.12000 16.118
25.28000 23.339
25.44000 29.376
25.60000 12.052
25.76000 20.319
25.92000 15.163
26.08000 21.182
26.24000 17.066
26.40000 18.152
26.56000 22.049
26.72000 10.055
26.88000 14.124
27.04000 11.033
27.20000 17.316
27.36000 11.164
27.52000 10.101
27.68000 8.111
27.84000 15.107
28.00000 10.126
28.16000 15.137
28.32000 10.004
28.48000 8.164
28.64000 16.342
28.80000 6.066
28.96000 12.165
29.12000 8.209
29.28000 7.089
29.44000 14.098
29.60000 13.194
29.76000 11.056
29.92000 10.171
30.08000 13.238
30.24000 11.098
30.40000 14.224
30.56000 2.986
30.72000 10.066
30.88000 9.144
31.04000 13.067
31.20000 10.158
31.36000 9.154
31.52000 7.052
31.68000 5.019
31.84000 4.957
32.00000 7.147
32.16000 15.076
32.32000 10.250
32.48000 5.114
32.64000 12.064
32.80000 9.145
32.96000 11.243
33.12000 5.036
33.28000 8.090
33.44000 4.083
33.60000 4.968
33.76000 5.951
33.92000 7.026
34.08000 3.003
34.24000 7.180
34.40000 5.071
34.56000 4.062
34.72000 6.162
34.88000 5.951
35.04000 3.034
35.20000 6.061
35.36000 6.120
35.52000 4.018
35.68000 6.009
35.84000 4.123
36.00000 3.003
36.16000 3.066
36.32000 4.007
36.48000 7.220
36.64000 5.005
36.80000 7.113
36.96000 3.008
37.12000 3.001
37.28000 2.990
37.44000 6.035
37.60000 5.004
37.76000 4.057
37.92000 6.123
38.08000 5.061
38.24000 4.039
38.40000 4.993
38.56000 6.106
38.72000 3.090
38.88000 7.156
39.04000 7.147
39.20000 5.108
39.36000 5.006
39.52000 3.994
39.68000 5.125
39.84000 2.026
40.00000 5.035
40.16000 7.197
40.32000 4.040
40.48000 1.048
40.64000 5.069
40.80000 5.113
40.96000 5.087
41.12000 4.000
41.28000 5.095
41.44000 11.013
41.60000 3.093
41.76000 3.034
41.92000 4.003
42.08000 3.044
42.24000 5.061
42.40000 7.153
42.56000 7.040
42.72000 8.190
42.88000 0.987
43.04000 3.059
43.20000 4.060
43.36000 1.989
43.52000 2.038
43.68000 7.163
43.84000 3.091
44.00000 2.003
44.16000 3.031
44.32000 3.987
44.48000 0.000
44.64000 0.000
44.80000 2.000
44.96000 4.017
45.12000 5.051
45.28000 3.010
45.44000 4.094
45.60000 2.041
45.76000 4.013
45.92000 5.108
46.08000 1.006
46.24000 2.092
46.40000 1.021
46.56000 4.104
46.72000 3.099
46.88000 6.091
47.04000 0.000
47.20000 3.042
47.36000 5.001
47.52000 0.000
47.68000 2.046
47.84000 5.092
48.00000 2.029
48.16000 2.019
48.32000 2.041
48.48000 2.067
48.64000 2.073
48.80000 4.111
48.96000 3.076
49.12000 0.991
49.28000 4.059
49.44000 2.037
49.60000 4.991
49.76000 1.996
49.92000 5.094
50.08000 1.007
50.24000 5.116
50.40000 3.021
50.56000 5.034
50.72000 1.024
50.88000 0.996
51.04000 2.068
51.20000 4.042
51.36000 3.971
51.52000 2.963
51.68000 3.056
51.84000 2.006
52.00000 3.044
52.16000 6.074
52.32000 1.993
52.48000 2.015
52.64000 1.064
52.80000 1.000
52.96000 0.000
53.12000 2.014
53.28000 3.004
53.44000 2.032
53.60000 2.992
53.76000 2.055
53.92000 0.993
54.08000 4.050
54.24000 6.146
54.40000 2.002
54.56000 1.009
54.72000 3.077
54.88000 1.021
55.04000 7.106
55.20000 4.074
55.36000 3.033
55.52000 0.000
55.68000 3.031
55.84000 1.012
56.00000 2.973
56.16000 5.116
56.32000 0.987
56.48000 6.027
56.64000 2.034
56.80000 2.031
56.96000 3.106
57.12000 2.026
57.28000 3.058
57.44000 3.097
57.60000 4.024
57.76000 4.024
57.92000 0.000
58.08000 2.038
58.24000 5.038
58.40000 5.081
58.56000 1.999
58.72000 0.000
58.88000 1.965
59.04000 1.997
59.20000 0.999
59.36000 4.045
59.52000 2.004
59.68000 2.075
59.84000 1.970
60.00000 1.003
60.16000 2.037
60.32000 1.983
60.48000 3.009
60.64000 0.000
60.80000 3.007
60.96000 3.004
61.12000 0.969
61.28000 1.999
61.44000 2.056
61.60000 3.013
61.76000 1.082
61.92000 3.051
62.08000 0.000
62.24000 1.052
62.40000 2.032
62.56000 1.041
62.72000 4.019
62.88000 3.034
63.04000 2.007
63.20000 0.000
63.36000 3.011
63.52000 2.982
63.68000 0.000
63.84000 3.077
64.00000 2.958
64.16000 0.976
64.32000 0.000
64.48000 2.040
64.64000 0.000
64.80000 2.060
64.96000 0.000
65.00000 0.998

File: 01092025_BTO_omega_1_001_14_-15-587_-19-546.xy
20.00000 156.334
20.16000 139.753
20.32000 145.355
20.48000 152.282
20.64000 140.250
20.80000 140.111
20.96000 125.108
21.12000 122.147
21.28000 104.206
21.44000 101.989
21.60000 117.970
21.76000 91.787
21.92000 99.581
22.08000 88.590
22.24000 62.683
22.40000 71.659
22.56000 66.695
22.72000 63.768
22.88000 48.576
23.04000 47.477
23.20000 41.454
23.36000 35.364
23.52000 36.254
23.68000 31.325
23.84000 29.159
24.00000 31.448
24.16000 17.075
24.32000 35.406
24.48000 31.308
24.64000 26.309
24.80000 24.355
24.96000 24.375
25.12000 24.482
25.28000 25.276
25.44000 14.301
25.60000 20.276
25.76000 21.145
25.92000 16.204
26.08000 16.081
26.24000 21.359
26.40000 17.189
26.56000 15.205
26.72000 13.085
26.88000 13.154
27.04000 15.115
27.20000 20.278
27.36000 14.279
27.52000 17.236
27.68000 14.060
27.84000 13.132
28.00000 7.994
28.16000 19.242
28.32000 17.058
28.48000 10.241
28.64000 18.272
28.80000 7.239
28.96000 10.086
29.12000 8.101
29.28000 12.263
29.44000 10.052
29.60000 10.121
29.76000 8.967
29.92000 10.192
30.08000 9.136
30.24000 10.064
30.40000 8.076
30.56000 11.174
30.72000 11.225
30.88000 9.120
31.04000 6.140
31.20000 10.233
31.36000 9.111
31.52000 9.137
31.68000 8.063
31.84000 9.177
32.00000 9.082
32.16000 9.027
32.32000 6.023
32.48000 10.041
32.64000 6.033
32.80000 9.221
32.96000 5.995
33.12000 8.943
33.28000 12.038
33.44000 3.950
33.60000 5.005
33.76000 6.054
33.92000 5.071
34.08000 6.067
34.24000 7.055
34.40000 4.058
34.56000 11.186
34.72000 6.114
34.88000 9.330
35.04000 8.112
35.20000 6.091
35.36000 4.063
35.52000 1.985
35.68000 9.183
35.84000 2.033
36.00000 7.202
36.16000 3.035
36.32000 1.971
36.48000 9.073
36.64000 10.057
36.80000 7.141
36.96000 8.166
37.12000 6.157
37.28000 7.140
37.44000 7.091
37.60000 4.087
37.76000 10.092
37.92000 7.123
38.08000 5.085
38.24000 0.000
38.40000 4.962
38.56000 7.998
38.72000 5.958
38.88000 3.034
39.04000 2.989
39.20000 0.996
39.36000 3.095
39.52000 4.165
39.68000 3.018
39.84000 2.999
40.00000 6.984
40.16000 4.032
40.32000 6.040
40.48000 5.043
40.64000 4.072
40.80000 3.036
40.96000 2.054
41.12000 5.024
41.28000 4.086
41.44000 2.055
41.60000 5.106
41.76000 10.209
41.92000 1.994
42.08000 4.050
42.24000 6.099
42.40000 2.976
42.56000 2.993
42.72000 5.017
42.88000 4.045
43.04000 6.069
43.20000 4.072
43.36000 3.077
43.52000 5.007
43.68000 9.072
43.84000 5.104
44.00000 2.980
44.16000 5.051
44.32000 8.068
44.48000 5.043
44.64000 5.078
44.80000 3.005
44.96000 4.032
45.12000 3.027
45.28000 0.000
45.44000 5.989
45.60000 3.047
45.76000 3.080
45.92000 1.992
46.08000 2.031
46.24000 2.049
46.40000 3.067
46.56000 3.033
46.72000 4.010
46.88000 4.088
47.04000 2.045
47.20000 1.988
47.36000 3.023
47.52000 2.094
47.68000 0.000
47.84000 6.077
48.00000 1.018
48.16000 3.093
48.32000 2.052
48.48000 1.989
48.64000 2.981
48.80000 5.169
48.96000 2.060
49.12000 3.029
49.28000 3.038
49.44000 0.986
49.60000 1.999
49.76000 4.068
49.92000 0.987
50.08000 6.057
50.24000 4.093
50.40000 6.155
50.56000 5.012
50.72000 2.994
50.88000 2.025
51.04000 4.011
51.20000 1.993
51.36000 2.047
51.52000 2.025
51.68000 3.103
51.84000 4.059
52.00000 0.000
52.16000 2.003
52.32000 0.980
52.48000 2.990
52.64000 5.121
52.80000 0.000
52.96000 1.014
53.12000 3.020
53.28000 1.045
53.44000 3.013
53.60000 0.000
53.76000 3.086
53.92000 1.994
54.08000 0.995
54.24000 1.022
54.40000 0.981
54.56000 7.076
54.72000 3.047
54.88000 1.983
55.04000 0.990
55.20000 1.065
55.36000 2.990
55.52000 4.079
55.68000 6.009
55.84000 1.028
56.00000 4.004
56.16000 1.978
56.32000 3.086
56.48000 0.000
56.64000 3.040
56.80000 5.065
56.96000 2.021
57.12000 2.000
57.28000 6.042
57.44000 3.092
57.60000 0.000
57.76000 3.020
57.92000 0.979
58.08000 2.034
58.24000 2.095
58.40000 4.180
58.56000 2.062
58.72000 5.016
58.88000 2.043
59.04000 1.959
59.20000 4.159
59.36000 3.025
59.52000 1.068
59.68000 1.036
59.84000 1.031
60.00000 2.028
60.16000 0.995
60.32000 1.053
60.48000 1.012
60.64000 3.008
60.80000 0.998
60.96000 4.066
61.12000 2.972
61.28000 1.025
61.44000 0.987
61.60000 2.015
61.76000 1.027
61.92000 0.000
62.08000 3.016
62.24000 0.000
62.40000 1.992
62.56000 0.991
62.72000 3.060
62.88000 2.975
63.04000 0.993
63.20000 2.050
63.36000 1.017
63.52000 5.035
63.68000 0.000
63.84000 1.990
64.00000 3.009
64.16000 4.078
64.32000 5.108
64.48000 1.091
64.64000 0.000
64.80000 0.000
64.96000 2.081
65.00000 1.020