Folder: Master-Thesis/XRD/11-09-2025/XY Data (part 4)

File: 01092025_BTO_omega_1_001_15_33-786_-16-271.xy
20.00000 18.316
20.16000 22.365
20.32000 19.293
20.48000 14.241
20.64000 20.262
20.80000 11.059
20.96000 21.272
21.12000 12.142
21.28000 13.268
21.44000 17.199
21.60000 20.174
21.76000 27.286
21.92000 19.160
22.08000 18.013
22.24000 20.455
22.40000 26.247
22.56000 22.396
22.72000 15.212
22.88000 9.068
23.04000 12.138
23.20000 13.260
23.36000 14.120
23.52000 11.252
23.68000 20.485
23.84000 10.229
24.00000 21.181
24.16000 10.072
24.32000 12.250
24.48000 15.201
24.64000 10.126
24.80000 15.214
24.96000 11.999
25.12000 9.124
25.28000 13.171
25.44000 15.063
25.60000 13.176
25.76000 11.048
25.92000 14.085
26.08000 8.052
26.24000 11.091
26.40000 12.183
26.56000 11.154
26.72000 9.059
26.88000 9.155
27.04000 14.161
27.20000 11.194
27.36000 11.203
27.52000 7.057
27.68000 8.207
27.84000 8.086
28.00000 6.078
28.16000 16.116
28.32000 12.193
28.48000 7.134
28.64000 4.975
28.80000 11.079
28.96000 8.168
29.12000 11.163
29.28000 19.090
29.44000 6.047
29.60000 7.094
29.76000 6.070
29.92000 7.044
30.08000 5.079
30.24000 5.059
30.40000 6.105
30.56000 9.099
30.72000 3.068
30.88000 12.095
31.04000 7.159
31.20000 10.230
31.36000 7.116
31.52000 6.060
31.68000 7.087
31.84000 4.109
32.00000 5.998
32.16000 8.089
32.32000 5.023
32.48000 8.078
32.64000 7.157
32.80000 5.074
32.96000 5.100
33.12000 7.079
33.28000 4.055
33.44000 4.140
33.60000 7.220
33.76000 10.171
33.92000 10.144
34.08000 8.095
34.24000 3.025
34.40000 4.009
34.56000 9.109
34.72000 4.090
34.88000 9.113
35.04000 8.093
35.20000 4.153
35.36000 2.061
35.52000 1.026
35.68000 10.305
35.84000 2.062
36.00000 2.081
36.16000 2.996
36.32000 5.042
36.48000 8.054
36.64000 4.055
36.80000 2.066
36.96000 5.077
37.12000 5.091
37.28000 2.969
37.44000 6.145
37.60000 2.005
37.76000 5.067
37.92000 5.128
38.08000 7.076
38.24000 4.083
38.40000 4.166
38.56000 6.014
38.72000 4.070
38.88000 4.078
39.04000 7.208
39.20000 7.027
39.36000 1.020
39.52000 2.003
39.68000 1.005
39.84000 5.126
40.00000 6.087
40.16000 7.147
40.32000 4.108
40.48000 1.022
40.64000 2.987
40.80000 1.991
40.96000 4.028
41.12000 3.017
41.28000 2.014
41.44000 3.070
41.60000 2.978
41.76000 1.023
41.92000 4.094
42.08000 0.993
42.24000 3.991
42.40000 4.051
42.56000 3.029
42.72000 5.153
42.88000 3.096
43.04000 0.000
43.20000 0.000
43.36000 5.033
43.52000 1.000
43.68000 4.036
43.84000 1.061
44.00000 4.000
44.16000 3.962
44.32000 3.049
44.48000 5.182
44.64000 1.022
44.80000 2.085
44.96000 5.064
45.12000 6.119
45.28000 4.073
45.44000 1.025
45.60000 5.064
45.76000 3.078
45.92000 5.053
46.08000 0.000
46.24000 4.076
46.40000 3.058
46.56000 2.073
46.72000 5.146
46.88000 3.080
47.04000 1.979
47.20000 3.011
47.36000 3.081
47.52000 3.083
47.68000 3.058
47.84000 0.000
48.00000 1.003
48.16000 2.041
48.32000 6.167
48.48000 4.003
48.64000 0.978
48.80000 0.000
48.96000 2.006
49.12000 3.014
49.28000 1.022
49.44000 3.052
49.60000 4.058
49.76000 1.993
49.92000 1.033
50.08000 2.011
50.24000 3.027
50.40000 0.975
50.56000 4.076
50.72000 4.083
50.88000 3.115
51.04000 3.081
51.20000 0.000
51.36000 5.079
51.52000 0.000
51.68000 2.076
51.84000 6.005
52.00000 2.015
52.16000 2.116
52.32000 3.026
52.48000 0.000
52.64000 2.003
52.80000 4.023
52.96000 1.969
53.12000 2.048
53.28000 3.031
53.44000 0.000
53.60000 2.034
53.76000 2.020
53.92000 0.974
54.08000 0.000
54.24000 1.970
54.40000 2.991
54.56000 3.004
54.72000 0.000
54.88000 3.939
55.04000 1.972
55.20000 2.034
55.36000 1.013
55.52000 1.041
55.68000 0.000
55.84000 1.017
56.00000 0.000
56.16000 1.027
56.32000 4.119
56.48000 0.000
56.64000 4.047
56.80000 2.016
56.96000 0.000
57.12000 0.998
57.28000 1.021
57.44000 0.000
57.60000 1.014
57.76000 0.987
57.92000 1.013
58.08000 0.998
58.24000 0.000
58.40000 4.031
58.56000 0.968
58.72000 2.036
58.88000 0.973
59.04000 0.000
59.20000 1.014
59.36000 4.079
59.52000 3.000
59.68000 1.003
59.84000 2.058
60.00000 2.007
60.16000 2.012
60.32000 4.066
60.48000 2.979
60.64000 1.013
60.80000 3.057
60.96000 5.119
61.12000 3.053
61.28000 3.008
61.44000 0.000
61.60000 1.048
61.76000 1.999
61.92000 1.008
62.08000 0.000
62.24000 2.007
62.40000 1.035
62.56000 0.000
62.72000 0.994
62.88000 0.000
63.04000 2.089
63.20000 2.037
63.36000 0.000
63.52000 0.984
63.68000 1.040
63.84000 0.000
64.00000 0.985
64.16000 1.029
64.32000 2.021
64.48000 1.991
64.64000 3.061
64.80000 0.989
64.96000 0.000
65.00000 2.083

File: 01092025_BTO_omega_1_001_17_-2-782_-12-187.xy
20.00000 39.316
20.16000 41.309
20.32000 39.445
20.48000 41.583
20.64000 50.452
20.80000 18.129
20.96000 26.256
21.12000 32.251
21.28000 30.164
21.44000 40.159
21.60000 27.351
21.76000 29.309
21.92000 31.400
22.08000 33.272
22.24000 32.346
22.40000 28.421
22.56000 18.208
22.72000 26.346
22.88000 17.052
23.04000 18.253
23.20000 25.338
23.36000 27.424
23.52000 24.496
23.68000 32.478
23.84000 25.174
24.00000 12.090
24.16000 22.296
24.32000 10.993
24.48000 22.186
24.64000 23.293
24.80000 14.039
24.96000 22.155
25.12000 14.251
25.28000 11.181
25.44000 6.053
25.60000 15.158
25.76000 9.205
25.92000 19.417
26.08000 16.225
26.24000 17.252
26.40000 16.135
26.56000 9.118
26.72000 18.316
26.88000 12.054
27.04000 13.107
27.20000 13.175
27.36000 13.133
27.52000 10.139
27.68000 19.370
27.84000 11.186
28.00000 6.041
28.16000 5.098
28.32000 8.096
28.48000 16.240
28.64000 4.098
28.80000 5.066
28.96000 12.241
29.12000 7.001
29.28000 6.984
29.44000 12.220
29.60000 5.997
29.76000 11.209
29.92000 8.130
30.08000 10.182
30.24000 9.042
30.40000 13.158
30.56000 9.214
30.72000 10.033
30.88000 2.015
31.04000 12.190
31.20000 7.077
31.36000 13.196
31.52000 5.952
31.68000 8.061
31.84000 4.152
32.00000 9.148
32.16000 8.095
32.32000 9.166
32.48000 5.022
32.64000 10.104
32.80000 6.064
32.96000 7.148
33.12000 6.052
33.28000 6.045
33.44000 3.011
33.60000 6.167
33.76000 7.094
33.92000 8.157
34.08000 5.083
34.24000 8.075
34.40000 5.107
34.56000 4.080
34.72000 6.021
34.88000 5.036
35.04000 5.113
35.20000 3.077
35.36000 6.188
35.52000 8.022
35.68000 5.089
35.84000 7.057
36.00000 2.000
36.16000 7.116
36.32000 11.201
36.48000 4.072
36.64000 3.991
36.80000 4.106
36.96000 0.995
37.12000 5.120
37.28000 6.075
37.44000 6.081
37.60000 3.050
37.76000 6.037
37.92000 6.042
38.08000 2.028
38.24000 8.173
38.40000 4.043
38.56000 8.122
38.72000 3.073
38.88000 5.053
39.04000 3.965
39.20000 5.071
39.36000 4.075
39.52000 4.119
39.68000 9.054
39.84000 4.059
40.00000 3.038
40.16000 1.028
40.32000 4.066
40.48000 4.126
40.64000 4.012
40.80000 2.109
40.96000 1.996
41.12000 1.030
41.28000 1.973
41.44000 3.042
41.60000 7.012
41.76000 5.162
41.92000 4.088
42.08000 0.000
42.24000 5.996
42.40000 5.008
42.56000 3.068
42.72000 1.975
42.88000 3.059
43.04000 1.000
43.20000 4.063
43.36000 1.030
43.52000 3.003
43.68000 3.983
43.84000 2.037
44.00000 1.994
44.16000 1.976
44.32000 1.017
44.48000 5.020
44.64000 1.007
44.80000 4.011
44.96000 2.983
45.12000 2.030
45.28000 2.004
45.44000 1.995
45.60000 6.166
45.76000 5.096
45.92000 3.163
46.08000 4.123
46.24000 2.014
46.40000 2.067
46.56000 1.023
46.72000 6.027
46.88000 3.028
47.04000 3.952
47.20000 1.994
47.36000 1.002
47.52000 3.035
47.68000 3.000
47.84000 4.000
48.00000 2.997
48.16000 1.028
48.32000 1.993
48.48000 2.003
48.64000 2.070
48.80000 7.101
48.96000 1.043
49.12000 8.119
49.28000 0.976
49.44000 0.000
49.60000 0.980
49.76000 2.051
49.92000 0.000
50.08000 3.073
50.24000 2.037
50.40000 1.976
50.56000 0.000
50.72000 4.180
50.88000 0.000
51.04000 3.007
51.20000 3.011
51.36000 3.036
51.52000 1.025
51.68000 0.000
51.84000 3.035
52.00000 2.048
52.16000 0.976
52.32000 1.980
52.48000 4.059
52.64000 1.048
52.80000 4.997
52.96000 3.027
53.12000 2.996
53.28000 2.031
53.44000 2.008
53.60000 0.000
53.76000 3.032
53.92000 1.972
54.08000 1.006
54.24000 2.999
54.40000 0.000
54.56000 1.007
54.72000 3.048
54.88000 2.005
55.04000 1.020
55.20000 4.054
55.36000 1.036
55.52000 2.007
55.68000 0.000
55.84000 3.036
56.00000 3.006
56.16000 1.060
56.32000 1.015
56.48000 0.976
56.64000 2.041
56.80000 4.053
56.96000 0.000
57.12000 1.033
57.28000 0.000
57.44000 0.000
57.60000 2.065
57.76000 0.969
57.92000 1.013
58.08000 1.012
58.24000 0.000
58.40000 2.037
58.56000 4.050
58.72000 1.049
58.88000 2.029
59.04000 1.981
59.20000 1.987
59.36000 1.051
59.52000 2.018
59.68000 1.977
59.84000 1.014
60.00000 1.062
60.16000 4.088
60.32000 2.011
60.48000 2.054
60.64000 0.000
60.80000 1.034
60.96000 1.024
61.12000 0.000
61.28000 0.980
61.44000 0.999
61.60000 0.000
61.76000 0.000
61.92000 1.015
62.08000 2.004
62.24000 3.025
62.40000 3.107
62.56000 2.063
62.72000 0.991
62.88000 1.025
63.04000 0.000
63.20000 1.016
63.36000 1.975
63.52000 1.022
63.68000 1.032
63.84000 6.023
64.00000 0.988
64.16000 2.049
64.32000 3.054
64.48000 0.000
64.64000 0.000
64.80000 0.997
64.96000 1.986
65.00000 1.025

File: 01092025_BTO_omega_1_001_18_2-782_-12-187.xy
20.00000 38.449
20.16000 40.307
20.32000 37.477
20.48000 23.092
20.64000 48.632
20.80000 32.564
20.96000 37.431
21.12000 38.727
21.28000 36.367
21.44000 28.525
21.60000 33.203
21.76000 27.427
21.92000 34.330
22.08000 30.258
22.24000 25.382
22.40000 28.308
22.56000 25.269
22.72000 21.154
22.88000 21.309
23.04000 25.188
23.20000 36.238
23.36000 25.906
23.52000 21.252
23.68000 31.376
23.84000 20.242
24.00000 18.085
24.16000 20.504
24.32000 18.324
24.48000 18.405
24.64000 13.089
24.80000 15.069
24.96000 20.373
25.12000 19.221
25.28000 18.075
25.44000 11.205
25.60000 12.074
25.76000 16.250
25.92000 17.253
26.08000 14.207
26.24000 14.288
26.40000 8.996
26.56000 8.099
26.72000 14.175
26.88000 9.169
27.04000 8.180
27.20000 15.160
27.36000 13.245
27.52000 11.210
27.68000 11.072
27.84000 12.241
28.00000 15.170
28.16000 10.129
28.32000 8.184
28.48000 6.142
28.64000 11.136
28.80000 12.128
28.96000 6.066
29.12000 9.128
29.28000 10.136
29.44000 10.064
29.60000 11.120
29.76000 7.173
29.92000 10.138
30.08000 7.164
30.24000 10.084
30.40000 6.981
30.56000 7.086
30.72000 5.160
30.88000 11.172
31.04000 7.905
31.20000 6.086
31.36000 5.020
31.52000 8.214
31.68000 5.013
31.84000 7.168
32.00000 11.181
32.16000 11.094
32.32000 4.993
32.48000 5.105
32.64000 6.067
32.80000 3.020
32.96000 5.060
33.12000 7.121
33.28000 6.980
33.44000 4.074
33.60000 5.126
33.76000 7.133
33.92000 7.111
34.08000 2.040
34.24000 5.109
34.40000 4.069
34.56000 9.178
34.72000 3.023
34.88000 7.097
35.04000 2.980
35.20000 11.118
35.36000 3.989
35.52000 1.014
35.68000 5.084
35.84000 15.270
36.00000 6.103
36.16000 4.940
36.32000 3.961
36.48000 7.086
36.64000 3.046
36.80000 2.993
36.96000 2.144
37.12000 4.058
37.28000 1.995
37.44000 5.012
37.60000 6.045
37.76000 2.011
37.92000 5.072
38.08000 7.992
38.24000 6.039
38.40000 7.166
38.56000 7.099
38.72000 5.035
38.88000 1.051
39.04000 2.077
39.20000 6.183
39.36000 5.059
39.52000 5.029
39.68000 8.059
39.84000 6.056
40.00000 7.014
40.16000 4.067
40.32000 5.098
40.48000 4.976
40.64000 7.156
40.80000 5.019
40.96000 3.035
41.12000 7.115
41.28000 2.025
41.44000 3.075
41.60000 5.059
41.76000 1.032
41.92000 6.073
42.08000 3.027
42.24000 6.010
42.40000 2.043
42.56000 1.979
42.72000 2.036
42.88000 5.092
43.04000 2.030
43.20000 4.141
43.36000 2.991
43.52000 3.044
43.68000 0.996
43.84000 1.085
44.00000 2.989
44.16000 6.979
44.32000 4.087
44.48000 5.212
44.64000 3.001
44.80000 1.035
44.96000 4.066
45.12000 0.979
45.28000 5.030
45.44000 2.972
45.60000 2.036
45.76000 2.017
45.92000 0.000
46.08000 3.016
46.24000 1.011
46.40000 1.010
46.56000 4.076
46.72000 3.042
46.88000 0.988
47.04000 3.046
47.20000 8.121
47.36000 1.028
47.52000 4.077
47.68000 3.987
47.84000 5.087
48.00000 4.101
48.16000 2.046
48.32000 3.005
48.48000 6.080
48.64000 4.000
48.80000 0.000
48.96000 1.000
49.12000 7.083
49.28000 3.044
49.44000 3.001
49.60000 1.006
49.76000 3.065
49.92000 2.081
50.08000 2.042
50.24000 0.000
50.40000 1.088
50.56000 1.042
50.72000 2.051
50.88000 3.011
51.04000 3.076
51.20000 3.019
51.36000 1.042
51.52000 1.039
51.68000 0.995
51.84000 1.054
52.00000 4.959
52.16000 1.025
52.32000 2.007
52.48000 1.057
52.64000 1.050
52.80000 2.039
52.96000 4.018
53.12000 2.995
53.28000 3.022
53.44000 1.015
53.60000 1.050
53.76000 2.030
53.92000 2.003
54.08000 1.987
54.24000 0.000
54.40000 2.005
54.56000 1.000
54.72000 2.103
54.88000 1.989
55.04000 1.040
55.20000 5.105
55.36000 0.994
55.52000 2.977
55.68000 2.071
55.84000 4.021
56.00000 3.022
56.16000 2.011
56.32000 3.971
56.48000 0.000
56.64000 0.986
56.80000 3.058
56.96000 3.056
57.12000 1.007
57.28000 0.000
57.44000 2.035
57.60000 0.989
57.76000 3.029
57.92000 0.993
58.08000 0.000
58.24000 2.073
58.40000 1.008
58.56000 2.010
58.72000 1.013
58.88000 1.035
59.04000 0.000
59.20000 0.981
59.36000 3.018
59.52000 1.986
59.68000 0.000
59.84000 1.990
60.00000 3.081
60.16000 2.004
60.32000 1.989
60.48000 1.025
60.64000 4.038
60.80000 1.021
60.96000 1.069
61.12000 1.006
61.28000 0.000
61.44000 0.997
61.60000 4.056
61.76000 0.000
61.92000 1.011
62.08000 0.000
62.24000 2.013
62.40000 3.047
62.56000 2.028
62.72000 1.009
62.88000 0.978
63.04000 0.995
63.20000 2.029
63.36000 1.029
63.52000 1.985
63.68000 0.985
63.84000 0.000
64.00000 0.993
64.16000 1.035
64.32000 0.000
64.48000 3.097
64.64000 2.043
64.80000 1.053
64.96000 0.999
65.00000 1.989

File: 01092025_BTO_omega_1_001_22_-7-794_-9-773.xy
20.00000 16.170
20.16000 16.222
20.32000 19.304
20.48000 14.086
20.64000 13.263
20.80000 13.174
20.96000 13.113
21.12000 19.388
21.28000 4.045
21.44000 17.230
21.60000 18.332
21.76000 17.457
21.92000 13.262
22.08000 22.345
22.24000 18.250
22.40000 11.054
22.56000 23.224
22.72000 14.282
22.88000 10.052
23.04000 12.138
23.20000 12.050
23.36000 14.186
23.52000 10.142
23.68000 12.244
23.84000 10.156
24.00000 14.070
24.16000 4.983
24.32000 14.127
24.48000 11.060
24.64000 13.232
24.80000 14.302
24.96000 11.093
25.12000 9.999
25.28000 10.142
25.44000 10.092
25.60000 14.108
25.76000 13.132
25.92000 5.067
26.08000 8.137
26.24000 14.110
26.40000 10.180
26.56000 9.059
26.72000 9.202
26.88000 16.179
27.04000 10.185
27.20000 7.022
27.36000 9.158
27.52000 9.036
27.68000 10.137
27.84000 9.121
28.00000 15.342
28.16000 11.235
28.32000 12.278
28.48000 10.209
28.64000 12.110
28.80000 4.091
28.96000 5.032
29.12000 9.210
29.28000 4.117
29.44000 10.106
29.60000 9.144
29.76000 13.231
29.92000 7.023
30.08000 10.213
30.24000 11.237
30.40000 20.300
30.56000 5.054
30.72000 10.059
30.88000 10.180
31.04000 9.074
31.20000 9.125
31.36000 7.077
31.52000 5.019
31.68000 3.997
31.84000 7.232
32.00000 4.089
32.16000 10.010
32.32000 3.962
32.48000 7.145
32.64000 4.070
32.80000 5.065
32.96000 3.095
33.12000 4.062
33.28000 6.039
33.44000 2.021
33.60000 6.099
33.76000 5.095
33.92000 9.148
34.08000 3.204
34.24000 10.988
34.40000 9.116
34.56000 4.042
34.72000 1.999
34.88000 7.038
35.04000 9.070
35.20000 6.088
35.36000 11.200
35.52000 11.213
35.68000 6.036
35.84000 4.047
36.00000 2.023
36.16000 5.040
36.32000 5.001
36.48000 8.026
36.64000 8.078
36.80000 3.033
36.96000 9.192
37.12000 2.033
37.28000 9.123
37.44000 5.121
37.60000 8.065
37.76000 2.027
37.92000 4.113
38.08000 3.985
38.24000 2.981
38.40000 2.997
38.56000 3.070
38.72000 4.088
38.88000 5.998
39.04000 3.977
39.20000 5.092
39.36000 3.059
39.52000 4.061
39.68000 8.134
39.84000 2.986
40.00000 3.020
40.16000 3.075
40.32000 2.002
40.48000 6.092
40.64000 0.000
40.80000 7.061
40.96000 3.086
41.12000 7.110
41.28000 2.017
41.44000 1.982
41.60000 5.106
41.76000 4.029
41.92000 2.050
42.08000 4.994
42.24000 2.057
42.40000 2.988
42.56000 9.985
42.72000 1.000
42.88000 0.000
43.04000 3.100
43.20000 1.980
43.36000 5.070
43.52000 3.038
43.68000 0.000
43.84000 6.108
44.00000 1.003
44.16000 2.031
44.32000 4.942
44.48000 6.089
44.64000 4.128
44.80000 1.092
44.96000 3.994
45.12000 4.030
45.28000 2.996
45.44000 2.991
45.60000 2.025
45.76000 1.999
45.92000 2.020
46.08000 8.084
46.24000 2.053
46.40000 0.000
46.56000 1.054
46.72000 2.073
46.88000 3.058
47.04000 0.000
47.20000 2.052
47.36000 2.056
47.52000 2.002
47.68000 2.078
47.84000 3.018
48.00000 1.987
48.16000 2.001
48.32000 0.000
48.48000 2.028
48.64000 2.035
48.80000 0.996
48.96000 4.081
49.12000 3.111
49.28000 5.002
49.44000 3.048
49.60000 0.980
49.76000 0.000
49.92000 2.085
50.08000 3.065
50.24000 4.092
50.40000 4.096
50.56000 3.075
50.72000 3.038
50.88000 2.026
51.04000 3.085
51.20000 1.990
51.36000 0.000
51.52000 0.996
51.68000 2.012
51.84000 0.000
52.00000 0.999
52.16000 2.055
52.32000 1.992
52.48000 2.012
52.64000 1.012
52.80000 3.068
52.96000 3.119
53.12000 2.003
53.28000 2.019
53.44000 0.000
53.60000 0.000
53.76000 0.000
53.92000 1.011
54.08000 0.992
54.24000 2.025
54.40000 3.011
54.56000 2.084
54.72000 0.974
54.88000 2.005
55.04000 0.000
55.20000 1.013
55.36000 3.035
55.52000 2.025
55.68000 0.000
55.84000 0.000
56.00000 2.024
56.16000 1.975
56.32000 0.997
56.48000 2.052
56.64000 2.005
56.80000 1.023
56.96000 1.011
57.12000 0.000
57.28000 1.014
57.44000 1.029
57.60000 0.000
57.76000 0.000
57.92000 3.042
58.08000 0.986
58.24000 2.980
58.40000 1.041
58.56000 1.002
58.72000 1.992
58.88000 1.991
59.04000 3.074
59.20000 2.038
59.36000 0.989
59.52000 3.007
59.68000 1.953
59.84000 2.086
60.00000 0.000
60.16000 1.011
60.32000 0.000
60.48000 1.979
60.64000 2.026
60.80000 0.000
60.96000 0.998
61.12000 2.003
61.28000 0.000
61.44000 3.011
61.60000 0.000
61.76000 3.055
61.92000 1.994
62.08000 2.105
62.24000 0.000
62.40000 3.095
62.56000 0.000
62.72000 1.040
62.88000 2.005
63.04000 1.032
63.20000 0.000
63.36000 0.989
63.52000 3.992
63.68000 0.980
63.84000 1.027
64.00000 0.000
64.16000 2.024
64.32000 2.037
64.48000 2.036
64.64000 1.998
64.80000 2.044
64.96000 0.987
65.00000 0.000

File: 01092025_BTO_omega_1_001_23_11-262_-5-424.xy
20.00000 21.250
20.16000 6.101
20.32000 14.227
20.48000 15.167
20.64000 20.253
20.80000 12.111
20.96000 13.140
21.12000 11.121
21.28000 15.447
21.44000 10.154
21.60000 11.223
21.76000 11.086
21.92000 12.237
22.08000 8.114
22.24000 7.033
22.40000 12.250
22.56000 14.034
22.72000 9.121
22.88000 10.192
23.04000 6.130
23.20000 10.146
23.36000 10.157
23.52000 13.308
23.68000 6.998
23.84000 8.046
24.00000 14.217
24.16000 10.158
24.32000 8.032
24.48000 10.054
24.64000 10.197
24.80000 5.017
24.96000 8.117
25.12000 9.002
25.28000 16.278
25.44000 8.075
25.60000 4.971
25.76000 8.061
25.92000 9.054
26.08000 8.078
26.24000 5.162
26.40000 8.106
26.56000 6.101
26.72000 4.038
26.88000 3.025
27.04000 7.078
27.20000 8.005
27.36000 6.033
27.52000 4.084
27.68000 7.075
27.84000 13.021
28.00000 7.015
28.16000 5.086
28.32000 7.173
28.48000 12.153
28.64000 9.213
28.80000 8.090
28.96000 1.024
29.12000 4.013
29.28000 5.165
29.44000 5.987
29.60000 7.149
29.76000 14.309
29.92000 2.004
30.08000 7.046
30.24000 5.030
30.40000 5.036
30.56000 6.035
30.72000 4.121
30.88000 8.143
31.04000 9.172
31.20000 11.086
31.36000 5.048
31.52000 4.006
31.68000 2.016
31.84000 9.200
32.00000 6.033
32.16000 3.041
32.32000 6.167
32.48000 3.986
32.64000 4.041
32.80000 3.042
32.96000 8.045
33.12000 3.073
33.28000 3.024
33.44000 9.094
33.60000 5.103
33.76000 5.047
33.92000 4.033
34.08000 4.008
34.24000 4.055
34.40000 3.076
34.56000 5.176
34.72000 5.122
34.88000 2.101
35.04000 3.077
35.20000 1.063
35.36000 3.071
35.52000 3.033
35.68000 5.126
35.84000 1.013
36.00000 3.081
36.16000 1.041
36.32000 5.126
36.48000 1.984
36.64000 1.988
36.80000 7.118
36.96000 1.983
37.12000 4.975
37.28000 1.967
37.44000 4.997
37.60000 2.066
37.76000 3.094
37.92000 3.100
38.08000 1.024
38.24000 4.081
38.40000 3.013
38.56000 1.005
38.72000 4.024
38.88000 3.018
39.04000 0.000
39.20000 1.036
39.36000 3.988
39.52000 2.014
39.68000 0.995
39.84000 0.000
40.00000 5.054
40.16000 2.004
40.32000 2.057
40.48000 5.035
40.64000 2.060
40.80000 2.033
40.96000 3.001
41.12000 2.027
41.28000 3.048
41.44000 4.006
41.60000 1.976
41.76000 3.085
41.92000 0.995
42.08000 5.016
42.24000 2.051
42.40000 3.034
42.56000 5.116
42.72000 1.048
42.88000 5.087
43.04000 2.011
43.20000 1.035
43.36000 3.005
43.52000 4.027
43.68000 3.098
43.84000 0.993
44.00000 1.002
44.16000 2.054
44.32000 1.993
44.48000 5.027
44.64000 4.061
44.80000 1.014
44.96000 1.005
45.12000 3.027
45.28000 2.009
45.44000 0.000
45.60000 3.093
45.76000 0.990
45.92000 1.947
46.08000 2.013
46.24000 1.005
46.40000 4.134
46.56000 3.082
46.72000 3.001
46.88000 2.060
47.04000 1.996
47.20000 0.995
47.36000 4.020
47.52000 6.005
47.68000 4.093
47.84000 0.000
48.00000 7.051
48.16000 1.022
48.32000 3.036
48.48000 0.994
48.64000 1.006
48.80000 2.047
48.96000 3.957
49.12000 1.020
49.28000 2.014
49.44000 2.004
49.60000 1.991
49.76000 2.059
49.92000 3.038
50.08000 2.080
50.24000 0.000
50.40000 1.999
50.56000 3.040
50.72000 3.997
50.88000 2.993
51.04000 0.000
51.20000 2.020
51.36000 1.989
51.52000 0.987
51.68000 0.000
51.84000 3.059
52.00000 4.050
52.16000 0.000
52.32000 0.000
52.48000 0.000
52.64000 0.000
52.80000 1.027
52.96000 1.017
53.12000 0.000
53.28000 1.033
53.44000 0.000
53.60000 0.000
53.76000 3.094
53.92000 2.999
54.08000 0.000
54.24000 1.018
54.40000 3.017
54.56000 3.007
54.72000 3.039
54.88000 1.032
55.04000 3.022
55.20000 0.988
55.36000 0.984
55.52000 1.024
55.68000 2.003
55.84000 3.984
56.00000 1.042
56.16000 1.039
56.32000 0.986
56.48000 1.006
56.64000 1.021
56.80000 1.011
56.96000 0.000
57.12000 1.017
57.28000 2.019
57.44000 2.045
57.60000 0.000
57.76000 2.038
57.92000 0.000
58.08000 0.000
58.24000 1.985
58.40000 3.060
58.56000 0.000
58.72000 0.990
58.88000 4.069
59.04000 0.000
59.20000 0.984
59.36000 3.099
59.52000 0.000
59.68000 0.990
59.84000 0.999
60.00000 2.016
60.16000 1.012
60.32000 3.090
60.48000 0.000
60.64000 2.066
60.80000 2.011
60.96000 4.035
61.12000 0.000
61.28000 0.971
61.44000 0.000
61.60000 2.037
61.76000 2.077
61.92000 1.016
62.08000 2.024
62.24000 1.988
62.40000 1.986
62.56000 2.009
62.72000 0.000
62.88000 1.014
63.04000 1.038
63.20000 1.003
63.36000 0.000
63.52000 0.000
63.68000 1.034
63.84000 1.994
64.00000 0.000
64.16000 0.973
64.32000 0.000
64.48000 0.996
64.64000 1.002
64.80000 2.051
64.96000 2.060
65.00000 3.078