Folder: Master-Thesis/XRD/11-09-2025/XY Data (part 6)

File: 01092025_BTO_omega_1_001_41_-2-782_12-187.xy
20.00000 15.102
20.16000 22.265
20.32000 24.209
20.48000 18.155
20.64000 18.347
20.80000 22.252
20.96000 21.468
21.12000 15.323
21.28000 19.228
21.44000 19.366
21.60000 15.423
21.76000 23.246
21.92000 17.155
22.08000 20.106
22.24000 19.205
22.40000 26.111
22.56000 24.175
22.72000 20.272
22.88000 31.379
23.04000 23.284
23.20000 21.210
23.36000 21.046
23.52000 20.375
23.68000 21.225
23.84000 28.286
24.00000 27.211
24.16000 33.678
24.32000 25.443
24.48000 20.106
24.64000 29.519
24.80000 21.465
24.96000 32.513
25.12000 26.226
25.28000 34.639
25.44000 35.530
25.60000 42.773
25.76000 40.366
25.92000 35.602
26.08000 42.448
26.24000 43.693
26.40000 39.509
26.56000 32.398
26.72000 46.330
26.88000 46.640
27.04000 56.988
27.20000 49.932
27.36000 52.608
27.52000 47.433
27.68000 41.455
27.84000 42.604
28.00000 49.294
28.16000 36.318
28.32000 51.652
28.48000 35.546
28.64000 52.775
28.80000 27.400
28.96000 30.552
29.12000 33.437
29.28000 31.383
29.44000 32.489
29.60000 40.438
29.76000 33.580
29.92000 28.664
30.08000 28.337
30.24000 31.424
30.40000 33.374
30.56000 34.214
30.72000 32.446
30.88000 20.241
31.04000 26.207
31.20000 21.501
31.36000 22.430
31.52000 25.411
31.68000 19.297
31.84000 24.172
32.00000 27.419
32.16000 34.487
32.32000 34.569
32.48000 25.378
32.64000 24.258
32.80000 15.103
32.96000 27.514
33.12000 19.225
33.28000 23.520
33.44000 13.330
33.60000 14.208
33.76000 13.108
33.92000 22.393
34.08000 23.339
34.24000 17.212
34.40000 14.181
34.56000 9.132
34.72000 17.109
34.88000 10.240
35.04000 17.276
35.20000 14.309
35.36000 19.258
35.52000 13.216
35.68000 18.330
35.84000 22.347
36.00000 17.302
36.16000 12.288
36.32000 13.298
36.48000 13.113
36.64000 24.124
36.80000 11.140
36.96000 22.285
37.12000 19.257
37.28000 8.059
37.44000 20.409
37.60000 13.107
37.76000 15.132
37.92000 16.376
38.08000 17.276
38.24000 21.408
38.40000 17.195
38.56000 18.221
38.72000 12.068
38.88000 13.197
39.04000 13.193
39.20000 22.311
39.36000 16.279
39.52000 15.107
39.68000 29.335
39.84000 23.336
40.00000 20.424
40.16000 29.407
40.32000 15.133
40.48000 17.264
40.64000 19.129
40.80000 16.373
40.96000 25.574
41.12000 18.201
41.28000 20.468
41.44000 21.237
41.60000 13.176
41.76000 17.282
41.92000 24.321
42.08000 17.307
42.24000 13.115
42.40000 22.402
42.56000 14.222
42.72000 16.169
42.88000 11.148
43.04000 19.349
43.20000 20.092
43.36000 15.157
43.52000 17.280
43.68000 24.134
43.84000 12.107
44.00000 26.287
44.16000 20.268
44.32000 11.047
44.48000 21.347
44.64000 26.313
44.80000 19.225
44.96000 11.304
45.12000 12.082
45.28000 15.329
45.44000 20.138
45.60000 13.136
45.76000 23.485
45.92000 26.383
46.08000 12.114
46.24000 23.309
46.40000 20.386
46.56000 19.451
46.72000 17.210
46.88000 19.324
47.04000 12.061
47.20000 16.211
47.36000 15.160
47.52000 19.348
47.68000 19.449
47.84000 17.249
48.00000 16.083
48.16000 13.156
48.32000 14.300
48.48000 14.195
48.64000 6.027
48.80000 24.414
48.96000 17.227
49.12000 21.410
49.28000 13.260
49.44000 20.208
49.60000 11.151
49.76000 16.180
49.92000 16.070
50.08000 9.033
50.24000 14.156
50.40000 19.192
50.56000 16.175
50.72000 7.062
50.88000 12.167
51.04000 16.337
51.20000 9.228
51.36000 10.095
51.52000 19.286
51.68000 14.201
51.84000 14.343
52.00000 18.294
52.16000 16.265
52.32000 15.248
52.48000 18.422
52.64000 19.247
52.80000 17.379
52.96000 16.075
53.12000 9.149
53.28000 11.037
53.44000 18.230
53.60000 16.268
53.76000 16.241
53.92000 12.114
54.08000 16.132
54.24000 10.153
54.40000 6.069
54.56000 10.070
54.72000 14.120
54.88000 22.315
55.04000 13.197
55.20000 13.076
55.36000 16.178
55.52000 8.242
55.68000 20.275
55.84000 10.079
56.00000 9.180
56.16000 16.231
56.32000 9.135
56.48000 15.131
56.64000 12.047
56.80000 16.203
56.96000 15.086
57.12000 17.386
57.28000 10.992
57.44000 17.243
57.60000 20.399
57.76000 8.974
57.92000 8.048
58.08000 16.223
58.24000 12.186
58.40000 14.121
58.56000 8.051
58.72000 7.101
58.88000 9.162
59.04000 11.097
59.20000 16.080
59.36000 9.108
59.52000 10.197
59.68000 6.117
59.84000 12.104
60.00000 9.055
60.16000 10.079
60.32000 10.103
60.48000 10.043
60.64000 10.021
60.80000 11.979
60.96000 15.079
61.12000 11.096
61.28000 11.148
61.44000 12.174
61.60000 7.109
61.76000 12.146
61.92000 8.081
62.08000 10.945
62.24000 11.146
62.40000 11.173
62.56000 12.201
62.72000 15.181
62.88000 8.106
63.04000 7.060
63.20000 9.063
63.36000 6.119
63.52000 8.098
63.68000 10.053
63.84000 14.133
64.00000 6.092
64.16000 8.146
64.32000 9.122
64.48000 11.047
64.64000 9.064
64.80000 11.163
64.96000 14.140
65.00000 3.071

File: 01092025_BTO_omega_1_001_43_-33-786_16-271.xy
20.00000 15.261
20.16000 19.308
20.32000 21.198
20.48000 21.220
20.64000 29.186
20.80000 15.142
20.96000 19.191
21.12000 22.389
21.28000 23.281
21.44000 23.289
21.60000 13.287
21.76000 20.341
21.92000 21.228
22.08000 21.251
22.24000 29.356
22.40000 15.193
22.56000 30.458
22.72000 29.363
22.88000 16.100
23.04000 33.542
23.20000 21.260
23.36000 21.330
23.52000 23.342
23.68000 26.349
23.84000 28.472
24.00000 24.194
24.16000 18.400
24.32000 28.270
24.48000 27.331
24.64000 17.145
24.80000 32.244
24.96000 28.315
25.12000 25.283
25.28000 36.413
25.44000 21.209
25.60000 38.232
25.76000 31.208
25.92000 38.672
26.08000 26.494
26.24000 48.441
26.40000 42.500
26.56000 38.288
26.72000 35.652
26.88000 38.322
27.04000 40.632
27.20000 46.666
27.36000 39.451
27.52000 36.375
27.68000 42.488
27.84000 27.352
28.00000 38.314
28.16000 47.549
28.32000 34.218
28.48000 40.437
28.64000 52.925
28.80000 42.252
28.96000 45.661
29.12000 44.728
29.28000 21.385
29.44000 31.618
29.60000 35.437
29.76000 32.263
29.92000 32.428
30.08000 26.234
30.24000 32.414
30.40000 29.503
30.56000 23.190
30.72000 26.448
30.88000 27.375
31.04000 34.397
31.20000 33.447
31.36000 17.276
31.52000 19.319
31.68000 31.171
31.84000 24.206
32.00000 26.634
32.16000 31.384
32.32000 23.377
32.48000 23.258
32.64000 18.225
32.80000 18.191
32.96000 21.231
33.12000 18.185
33.28000 18.158
33.44000 18.293
33.60000 15.188
33.76000 10.165
33.92000 12.180
34.08000 18.192
34.24000 17.224
34.40000 16.105
34.56000 14.348
34.72000 13.077
34.88000 20.257
35.04000 20.245
35.20000 15.032
35.36000 20.055
35.52000 10.025
35.68000 11.307
35.84000 16.239
36.00000 9.065
36.16000 20.174
36.32000 19.236
36.48000 26.377
36.64000 22.309
36.80000 12.241
36.96000 14.264
37.12000 12.109
37.28000 21.240
37.44000 14.200
37.60000 8.118
37.76000 12.193
37.92000 20.238
38.08000 23.258
38.24000 18.215
38.40000 15.174
38.56000 13.973
38.72000 8.081
38.88000 22.198
39.04000 9.185
39.20000 13.194
39.36000 18.285
39.52000 21.336
39.68000 14.072
39.84000 23.284
40.00000 19.172
40.16000 11.175
40.32000 14.178
40.48000 21.227
40.64000 12.107
40.80000 16.149
40.96000 23.364
41.12000 23.536
41.28000 21.209
41.44000 13.225
41.60000 13.115
41.76000 17.076
41.92000 14.143
42.08000 14.156
42.24000 12.152
42.40000 19.352
42.56000 13.160
42.72000 12.209
42.88000 16.117
43.04000 19.210
43.20000 9.327
43.36000 10.116
43.52000 20.267
43.68000 20.222
43.84000 19.220
44.00000 18.310
44.16000 7.041
44.32000 10.220
44.48000 20.283
44.64000 15.242
44.80000 14.220
44.96000 21.296
45.12000 17.112
45.28000 17.282
45.44000 17.209
45.60000 19.286
45.76000 15.152
45.92000 12.190
46.08000 17.145
46.24000 21.424
46.40000 19.241
46.56000 19.276
46.72000 25.337
46.88000 18.232
47.04000 10.118
47.20000 10.233
47.36000 15.188
47.52000 20.353
47.68000 19.175
47.84000 12.065
48.00000 16.085
48.16000 21.398
48.32000 17.091
48.48000 13.029
48.64000 5.112
48.80000 14.158
48.96000 12.118
49.12000 18.136
49.28000 10.052
49.44000 10.138
49.60000 7.058
49.76000 13.320
49.92000 19.364
50.08000 21.438
50.24000 16.097
50.40000 9.121
50.56000 10.080
50.72000 14.275
50.88000 26.078
51.04000 18.061
51.20000 12.137
51.36000 19.201
51.52000 17.082
51.68000 20.056
51.84000 18.367
52.00000 28.290
52.16000 10.132
52.32000 14.226
52.48000 11.085
52.64000 9.098
52.80000 14.375
52.96000 10.152
53.12000 9.223
53.28000 10.193
53.44000 9.142
53.60000 8.228
53.76000 16.320
53.92000 6.029
54.08000 12.085
54.24000 7.102
54.40000 18.282
54.56000 8.178
54.72000 6.137
54.88000 12.118
55.04000 6.064
55.20000 14.157
55.36000 11.190
55.52000 17.087
55.68000 6.113
55.84000 11.279
56.00000 7.096
56.16000 11.215
56.32000 12.166
56.48000 13.233
56.64000 13.168
56.80000 8.161
56.96000 15.248
57.12000 17.145
57.28000 12.054
57.44000 10.012
57.60000 18.419
57.76000 13.157
57.92000 11.952
58.08000 11.160
58.24000 6.977
58.40000 8.051
58.56000 6.083
58.72000 7.046
58.88000 3.062
59.04000 12.149
59.20000 14.244
59.36000 10.153
59.52000 13.212
59.68000 7.119
59.84000 10.054
60.00000 7.030
60.16000 5.084
60.32000 9.108
60.48000 9.192
60.64000 9.213
60.80000 12.064
60.96000 9.109
61.12000 6.094
61.28000 3.070
61.44000 9.067
61.60000 8.096
61.76000 12.251
61.92000 8.053
62.08000 6.086
62.24000 11.242
62.40000 9.044
62.56000 7.021
62.72000 9.099
62.88000 6.074
63.04000 7.020
63.20000 16.330
63.36000 8.084
63.52000 14.180
63.68000 14.211
63.84000 9.166
64.00000 6.066
64.16000 6.059
64.32000 6.110
64.48000 14.081
64.64000 13.286
64.80000 9.011
64.96000 9.099
65.00000 13.228

File: 01092025_BTO_omega_1_001_46_45-048_21-694.xy
20.00000 8.126
20.16000 13.136
20.32000 18.102
20.48000 13.336
20.64000 14.249
20.80000 15.188
20.96000 16.177
21.12000 11.226
21.28000 16.185
21.44000 15.338
21.60000 19.408
21.76000 16.261
21.92000 12.188
22.08000 13.113
22.24000 12.079
22.40000 12.095
22.56000 13.221
22.72000 13.163
22.88000 11.372
23.04000 14.199
23.20000 13.087
23.36000 15.201
23.52000 16.228
23.68000 12.088
23.84000 12.283
24.00000 12.093
24.16000 15.073
24.32000 18.168
24.48000 18.285
24.64000 19.202
24.80000 17.292
24.96000 16.224
25.12000 11.181
25.28000 11.194
25.44000 22.287
25.60000 21.157
25.76000 24.198
25.92000 16.313
26.08000 24.345
26.24000 26.241
26.40000 22.277
26.56000 23.335
26.72000 19.241
26.88000 24.135
27.04000 26.534
27.20000 26.484
27.36000 22.556
27.52000 35.498
27.68000 25.304
27.84000 25.549
28.00000 21.202
28.16000 21.212
28.32000 29.468
28.48000 22.479
28.64000 24.217
28.80000 26.278
28.96000 17.203
29.12000 24.439
29.28000 28.501
29.44000 26.152
29.60000 26.481
29.76000 16.117
29.92000 23.294
30.08000 18.235
30.24000 12.121
30.40000 29.451
30.56000 16.403
30.72000 12.153
30.88000 18.221
31.04000 15.184
31.20000 14.183
31.36000 12.145
31.52000 14.180
31.68000 13.337
31.84000 20.238
32.00000 12.046
32.16000 13.241
32.32000 9.157
32.48000 12.090
32.64000 12.154
32.80000 13.333
32.96000 14.349
33.12000 8.026
33.28000 7.119
33.44000 7.118
33.60000 7.106
33.76000 0.981
33.92000 13.195
34.08000 11.022
34.24000 7.126
34.40000 18.047
34.56000 2.938
34.72000 9.086
34.88000 9.148
35.04000 10.135
35.20000 8.061
35.36000 7.125
35.52000 4.101
35.68000 12.098
35.84000 10.201
36.00000 7.175
36.16000 6.042
36.32000 6.999
36.48000 7.124
36.64000 9.089
36.80000 6.002
36.96000 12.152
37.12000 3.040
37.28000 9.089
37.44000 6.015
37.60000 14.093
37.76000 12.135
37.92000 1.999
38.08000 6.999
38.24000 15.234
38.40000 4.056
38.56000 6.046
38.72000 11.224
38.88000 13.257
39.04000 12.063
39.20000 3.058
39.36000 6.058
39.52000 8.177
39.68000 4.137
39.84000 7.155
40.00000 13.292
40.16000 10.092
40.32000 13.119
40.48000 7.134
40.64000 8.956
40.80000 6.147
40.96000 6.149
41.12000 14.247
41.28000 9.122
41.44000 14.095
41.60000 10.152
41.76000 9.175
41.92000 9.101
42.08000 22.530
42.24000 13.083
42.40000 14.213
42.56000 13.284
42.72000 12.230
42.88000 7.122
43.04000 11.069
43.20000 7.092
43.36000 11.214
43.52000 8.068
43.68000 11.114
43.84000 10.117
44.00000 11.278
44.16000 8.035
44.32000 17.208
44.48000 9.239
44.64000 12.079
44.80000 5.058
44.96000 17.186
45.12000 11.101
45.28000 7.116
45.44000 10.086
45.60000 8.257
45.76000 13.178
45.92000 12.143
46.08000 7.229
46.24000 12.149
46.40000 11.047
46.56000 15.157
46.72000 11.151
46.88000 13.138
47.04000 13.122
47.20000 7.095
47.36000 12.116
47.52000 10.320
47.68000 14.203
47.84000 16.367
48.00000 14.114
48.16000 18.206
48.32000 8.129
48.48000 13.159
48.64000 9.066
48.80000 10.095
48.96000 6.164
49.12000 10.157
49.28000 12.019
49.44000 4.997
49.60000 4.058
49.76000 11.163
49.92000 10.122
50.08000 8.160
50.24000 12.315
50.40000 11.253
50.56000 11.304
50.72000 9.128
50.88000 8.170
51.04000 7.084
51.20000 16.224
51.36000 13.120
51.52000 7.198
51.68000 12.203
51.84000 11.183
52.00000 9.155
52.16000 7.165
52.32000 9.051
52.48000 17.229
52.64000 10.176
52.80000 11.328
52.96000 10.134
53.12000 6.024
53.28000 6.134
53.44000 16.313
53.60000 6.100
53.76000 10.144
53.92000 12.129
54.08000 3.094
54.24000 6.090
54.40000 11.241
54.56000 10.247
54.72000 8.053
54.88000 10.226
55.04000 11.082
55.20000 4.071
55.36000 12.134
55.52000 11.222
55.68000 5.158
55.84000 11.065
56.00000 12.033
56.16000 6.120
56.32000 5.997
56.48000 8.142
56.64000 9.146
56.80000 10.096
56.96000 12.230
57.12000 8.978
57.28000 9.245
57.44000 4.101
57.60000 6.965
57.76000 5.041
57.92000 6.986
58.08000 4.160
58.24000 5.005
58.40000 13.207
58.56000 9.154
58.72000 7.123
58.88000 12.141
59.04000 7.075
59.20000 11.109
59.36000 8.226
59.52000 8.217
59.68000 5.984
59.84000 7.047
60.00000 4.057
60.16000 10.098
60.32000 1.069
60.48000 6.051
60.64000 7.993
60.80000 8.019
60.96000 6.082
61.12000 6.998
61.28000 6.003
61.44000 12.340
61.60000 4.003
61.76000 11.116
61.92000 5.012
62.08000 10.242
62.24000 9.099
62.40000 9.059
62.56000 7.253
62.72000 10.241
62.88000 12.107
63.04000 10.117
63.20000 8.112
63.36000 7.181
63.52000 8.172
63.68000 9.157
63.84000 5.011
64.00000 7.968
64.16000 4.104
64.32000 5.094
64.48000 11.281
64.64000 4.945
64.80000 8.141
64.96000 10.031
65.00000 5.145