Folder: Master-Thesis/XRD/11-09-2025/XY Data (part 5)

File: 01092025_BTO_omega_1_001_24_-11-262_-5-424.xy
20.00000 11.117
20.16000 13.225
20.32000 10.046
20.48000 4.059
20.64000 14.351
20.80000 12.034
20.96000 11.189
21.12000 10.091
21.28000 9.087
21.44000 11.098
21.60000 17.245
21.76000 11.151
21.92000 15.064
22.08000 11.233
22.24000 14.280
22.40000 8.091
22.56000 13.229
22.72000 11.158
22.88000 10.976
23.04000 14.190
23.20000 13.174
23.36000 9.052
23.52000 5.956
23.68000 11.183
23.84000 8.092
24.00000 7.113
24.16000 4.991
24.32000 10.117
24.48000 10.104
24.64000 5.087
24.80000 8.106
24.96000 10.135
25.12000 5.048
25.28000 11.259
25.44000 9.077
25.60000 7.037
25.76000 12.119
25.92000 12.280
26.08000 9.093
26.24000 9.243
26.40000 1.978
26.56000 3.994
26.72000 13.242
26.88000 8.154
27.04000 7.013
27.20000 5.993
27.36000 5.006
27.52000 7.180
27.68000 8.046
27.84000 8.155
28.00000 8.188
28.16000 8.141
28.32000 4.124
28.48000 1.031
28.64000 1.010
28.80000 11.293
28.96000 3.069
29.12000 3.966
29.28000 2.041
29.44000 6.093
29.60000 9.138
29.76000 4.098
29.92000 6.169
30.08000 6.134
30.24000 5.102
30.40000 13.118
30.56000 4.071
30.72000 1.015
30.88000 2.033
31.04000 6.065
31.20000 0.995
31.36000 4.021
31.52000 3.058
31.68000 7.106
31.84000 8.055
32.00000 5.195
32.16000 7.047
32.32000 6.985
32.48000 4.062
32.64000 4.072
32.80000 4.058
32.96000 1.007
33.12000 2.990
33.28000 1.981
33.44000 11.112
33.60000 2.054
33.76000 3.032
33.92000 3.078
34.08000 2.990
34.24000 0.000
34.40000 1.097
34.56000 3.071
34.72000 2.046
34.88000 3.025
35.04000 7.175
35.20000 4.001
35.36000 1.997
35.52000 4.085
35.68000 5.017
35.84000 4.091
36.00000 2.984
36.16000 4.055
36.32000 0.000
36.48000 5.136
36.64000 4.035
36.80000 0.988
36.96000 3.049
37.12000 6.116
37.28000 1.997
37.44000 1.031
37.60000 3.064
37.76000 3.006
37.92000 3.965
38.08000 3.068
38.24000 2.078
38.40000 7.148
38.56000 5.133
38.72000 2.088
38.88000 0.977
39.04000 3.089
39.20000 3.027
39.36000 3.009
39.52000 1.976
39.68000 1.993
39.84000 8.138
40.00000 3.067
40.16000 0.000
40.32000 1.003
40.48000 3.062
40.64000 3.990
40.80000 1.004
40.96000 3.030
41.12000 3.092
41.28000 2.053
41.44000 1.039
41.60000 7.112
41.76000 2.017
41.92000 3.020
42.08000 2.008
42.24000 3.002
42.40000 2.068
42.56000 1.981
42.72000 0.998
42.88000 6.143
43.04000 0.000
43.20000 1.988
43.36000 4.122
43.52000 1.001
43.68000 4.027
43.84000 2.045
44.00000 1.020
44.16000 3.973
44.32000 1.037
44.48000 4.059
44.64000 1.046
44.80000 1.050
44.96000 2.008
45.12000 3.977
45.28000 3.021
45.44000 1.000
45.60000 4.143
45.76000 4.099
45.92000 3.003
46.08000 0.990
46.24000 2.067
46.40000 1.009
46.56000 2.080
46.72000 0.996
46.88000 1.006
47.04000 1.010
47.20000 2.072
47.36000 4.113
47.52000 0.000
47.68000 2.001
47.84000 2.006
48.00000 1.055
48.16000 1.967
48.32000 1.067
48.48000 1.999
48.64000 0.999
48.80000 3.006
48.96000 1.033
49.12000 0.990
49.28000 0.000
49.44000 3.024
49.60000 3.029
49.76000 2.034
49.92000 3.043
50.08000 3.053
50.24000 3.121
50.40000 2.022
50.56000 1.043
50.72000 1.985
50.88000 0.999
51.04000 0.000
51.20000 4.128
51.36000 0.000
51.52000 0.000
51.68000 0.000
51.84000 1.040
52.00000 1.025
52.16000 2.033
52.32000 3.054
52.48000 3.042
52.64000 2.025
52.80000 0.000
52.96000 2.054
53.12000 2.019
53.28000 2.008
53.44000 3.012
53.60000 2.043
53.76000 0.000
53.92000 2.004
54.08000 0.000
54.24000 0.992
54.40000 0.000
54.56000 4.014
54.72000 0.990
54.88000 0.988
55.04000 0.995
55.20000 0.000
55.36000 2.062
55.52000 3.107
55.68000 2.098
55.84000 1.989
56.00000 0.986
56.16000 3.024
56.32000 2.022
56.48000 0.000
56.64000 2.058
56.80000 0.000
56.96000 0.983
57.12000 0.000
57.28000 0.000
57.44000 1.001
57.60000 2.068
57.76000 6.073
57.92000 1.021
58.08000 0.000
58.24000 1.013
58.40000 1.011
58.56000 0.990
58.72000 3.046
58.88000 2.002
59.04000 2.045
59.20000 1.005
59.36000 0.000
59.52000 4.039
59.68000 1.997
59.84000 2.017
60.00000 2.040
60.16000 1.033
60.32000 2.064
60.48000 2.064
60.64000 3.990
60.80000 2.065
60.96000 1.998
61.12000 3.039
61.28000 1.959
61.44000 1.063
61.60000 1.004
61.76000 2.009
61.92000 0.977
62.08000 2.017
62.24000 0.000
62.40000 0.000
62.56000 1.059
62.72000 0.000
62.88000 0.000
63.04000 1.017
63.20000 0.000
63.36000 1.006
63.52000 0.000
63.68000 1.002
63.84000 0.000
64.00000 1.991
64.16000 0.000
64.32000 3.014
64.48000 1.029
64.64000 0.000
64.80000 5.012
64.96000 2.040
65.00000 2.050

File: 01092025_BTO_omega_1_001_29_50-000_0-000.xy
20.00000 14.192
20.16000 13.127
20.32000 6.976
20.48000 14.372
20.64000 13.115
20.80000 9.125
20.96000 16.358
21.12000 13.247
21.28000 12.183
21.44000 10.036
21.60000 20.397
21.76000 13.194
21.92000 14.387
22.08000 13.291
22.24000 10.139
22.40000 9.193
22.56000 13.017
22.72000 11.132
22.88000 16.378
23.04000 12.228
23.20000 15.161
23.36000 13.118
23.52000 14.179
23.68000 20.104
23.84000 9.224
24.00000 21.409
24.16000 12.283
24.32000 10.131
24.48000 11.324
24.64000 20.226
24.80000 10.091
24.96000 19.227
25.12000 14.126
25.28000 19.250
25.44000 14.211
25.60000 11.113
25.76000 12.328
25.92000 13.167
26.08000 26.353
26.24000 11.111
26.40000 16.198
26.56000 7.071
26.72000 8.062
26.88000 17.164
27.04000 12.185
27.20000 14.074
27.36000 14.080
27.52000 5.969
27.68000 15.242
27.84000 12.144
28.00000 15.159
28.16000 11.060
28.32000 9.096
28.48000 9.121
28.64000 12.156
28.80000 10.087
28.96000 8.054
29.12000 13.312
29.28000 14.037
29.44000 14.286
29.60000 11.127
29.76000 12.005
29.92000 13.208
30.08000 15.991
30.24000 10.155
30.40000 12.238
30.56000 16.143
30.72000 6.071
30.88000 11.267
31.04000 13.016
31.20000 9.049
31.36000 11.263
31.52000 10.199
31.68000 10.068
31.84000 5.055
32.00000 10.144
32.16000 9.265
32.32000 7.083
32.48000 7.176
32.64000 5.073
32.80000 8.992
32.96000 2.029
33.12000 6.117
33.28000 9.234
33.44000 2.020
33.60000 6.153
33.76000 4.033
33.92000 5.112
34.08000 10.092
34.24000 7.241
34.40000 3.069
34.56000 6.089
34.72000 4.026
34.88000 7.063
35.04000 5.063
35.20000 6.069
35.36000 6.989
35.52000 6.157
35.68000 4.050
35.84000 5.140
36.00000 9.098
36.16000 6.201
36.32000 6.124
36.48000 7.116
36.64000 6.176
36.80000 3.046
36.96000 4.088
37.12000 6.211
37.28000 1.023
37.44000 7.158
37.60000 8.014
37.76000 3.109
37.92000 5.018
38.08000 5.085
38.24000 9.065
38.40000 7.027
38.56000 4.210
38.72000 3.038
38.88000 3.093
39.04000 2.023
39.20000 7.137
39.36000 8.147
39.52000 9.238
39.68000 4.067
39.84000 6.043
40.00000 4.038
40.16000 12.206
40.32000 9.091
40.48000 6.023
40.64000 5.106
40.80000 8.148
40.96000 2.047
41.12000 3.032
41.28000 5.142
41.44000 7.249
41.60000 9.221
41.76000 6.067
41.92000 7.183
42.08000 2.047
42.24000 6.033
42.40000 3.049
42.56000 5.023
42.72000 6.102
42.88000 8.177
43.04000 6.115
43.20000 8.108
43.36000 4.207
43.52000 6.071
43.68000 7.142
43.84000 9.217
44.00000 2.024
44.16000 2.034
44.32000 4.034
44.48000 9.054
44.64000 7.157
44.80000 8.013
44.96000 5.031
45.12000 7.111
45.28000 3.071
45.44000 6.984
45.60000 3.107
45.76000 3.031
45.92000 2.023
46.08000 6.178
46.24000 11.091
46.40000 2.048
46.56000 6.105
46.72000 3.052
46.88000 2.072
47.04000 4.076
47.20000 5.041
47.36000 7.197
47.52000 6.005
47.68000 3.055
47.84000 7.115
48.00000 5.051
48.16000 9.071
48.32000 2.033
48.48000 8.117
48.64000 6.059
48.80000 6.142
48.96000 4.033
49.12000 7.153
49.28000 12.267
49.44000 3.070
49.60000 3.043
49.76000 7.058
49.92000 4.047
50.08000 3.048
50.24000 7.089
50.40000 7.123
50.56000 4.121
50.72000 3.018
50.88000 6.072
51.04000 5.068
51.20000 11.322
51.36000 7.123
51.52000 5.154
51.68000 4.141
51.84000 5.005
52.00000 4.092
52.16000 4.070
52.32000 2.986
52.48000 3.100
52.64000 10.089
52.80000 9.006
52.96000 8.250
53.12000 3.151
53.28000 8.089
53.44000 9.144
53.60000 6.146
53.76000 3.030
53.92000 5.033
54.08000 5.042
54.24000 7.077
54.40000 5.017
54.56000 4.998
54.72000 7.037
54.88000 4.019
55.04000 4.097
55.20000 6.007
55.36000 4.026
55.52000 5.202
55.68000 2.024
55.84000 5.146
56.00000 2.016
56.16000 9.079
56.32000 4.072
56.48000 5.126
56.64000 3.045
56.80000 1.011
56.96000 2.045
57.12000 3.991
57.28000 5.098
57.44000 3.017
57.60000 5.998
57.76000 8.215
57.92000 8.137
58.08000 4.103
58.24000 0.997
58.40000 2.075
58.56000 4.020
58.72000 3.054
58.88000 5.079
59.04000 2.037
59.20000 5.092
59.36000 4.012
59.52000 1.012
59.68000 4.115
59.84000 4.000
60.00000 4.029
60.16000 1.002
60.32000 4.192
60.48000 0.000
60.64000 6.105
60.80000 2.012
60.96000 4.099
61.12000 4.069
61.28000 2.076
61.44000 0.000
61.60000 1.016
61.76000 4.985
61.92000 5.072
62.08000 4.162
62.24000 5.047
62.40000 5.094
62.56000 2.993
62.72000 0.999
62.88000 4.072
63.04000 4.020
63.20000 3.028
63.36000 2.013
63.52000 4.119
63.68000 5.011
63.84000 4.122
64.00000 6.025
64.16000 5.073
64.32000 0.000
64.48000 2.086
64.64000 2.023
64.80000 3.142
64.96000 2.972
65.00000 6.131

File: 01092025_BTO_omega_1_001_30_-12-500_0-000.xy
20.00000 22.275
20.16000 27.321
20.32000 22.270
20.48000 16.299
20.64000 15.373
20.80000 8.201
20.96000 23.352
21.12000 18.265
21.28000 19.299
21.44000 18.083
21.60000 17.089
21.76000 16.122
21.92000 22.317
22.08000 19.224
22.24000 19.141
22.40000 20.349
22.56000 23.449
22.72000 13.154
22.88000 19.280
23.04000 19.122
23.20000 25.429
23.36000 28.364
23.52000 32.333
23.68000 17.122
23.84000 22.217
24.00000 23.279
24.16000 27.186
24.32000 31.671
24.48000 34.419
24.64000 25.389
24.80000 28.308
24.96000 35.371
25.12000 38.347
25.28000 22.318
25.44000 30.454
25.60000 35.338
25.76000 50.704
25.92000 28.280
26.08000 35.342
26.24000 40.541
26.40000 46.692
26.56000 31.540
26.72000 37.643
26.88000 25.509
27.04000 41.496
27.20000 57.697
27.36000 32.547
27.52000 37.603
27.68000 38.489
27.84000 44.698
28.00000 48.813
28.16000 32.458
28.32000 32.352
28.48000 25.330
28.64000 43.580
28.80000 35.615
28.96000 32.660
29.12000 20.322
29.28000 40.592
29.44000 28.301
29.60000 27.240
29.76000 28.561
29.92000 30.169
30.08000 25.303
30.24000 21.243
30.40000 20.400
30.56000 34.526
30.72000 30.332
30.88000 25.624
31.04000 25.261
31.20000 21.306
31.36000 16.203
31.52000 29.160
31.68000 32.420
31.84000 21.380
32.00000 15.036
32.16000 29.411
32.32000 26.160
32.48000 27.243
32.64000 24.388
32.80000 23.381
32.96000 21.103
33.12000 11.165
33.28000 21.297
33.44000 21.157
33.60000 18.114
33.76000 14.148
33.92000 16.143
34.08000 14.294
34.24000 15.275
34.40000 7.155
34.56000 17.345
34.72000 17.159
34.88000 10.081
35.04000 19.180
35.20000 17.080
35.36000 12.049
35.52000 10.296
35.68000 7.103
35.84000 9.117
36.00000 14.227
36.16000 19.202
36.32000 9.166
36.48000 15.177
36.64000 21.205
36.80000 14.251
36.96000 16.251
37.12000 18.246
37.28000 19.078
37.44000 13.071
37.60000 11.193
37.76000 14.243
37.92000 15.126
38.08000 13.985
38.24000 10.129
38.40000 12.045
38.56000 14.189
38.72000 9.222
38.88000 12.226
39.04000 14.208
39.20000 7.122
39.36000 16.290
39.52000 17.156
39.68000 11.301
39.84000 12.184
40.00000 14.378
40.16000 19.234
40.32000 13.110
40.48000 17.251
40.64000 21.246
40.80000 12.423
40.96000 21.223
41.12000 13.182
41.28000 6.053
41.44000 22.232
41.60000 13.317
41.76000 12.076
41.92000 16.218
42.08000 14.124
42.24000 10.173
42.40000 15.210
42.56000 24.542
42.72000 10.046
42.88000 12.179
43.04000 12.045
43.20000 10.161
43.36000 17.306
43.52000 18.220
43.68000 17.017
43.84000 19.150
44.00000 20.302
44.16000 14.075
44.32000 21.347
44.48000 12.104
44.64000 15.292
44.80000 16.281
44.96000 10.188
45.12000 13.118
45.28000 16.186
45.44000 15.258
45.60000 13.275
45.76000 16.165
45.92000 18.357
46.08000 15.069
46.24000 16.120
46.40000 10.029
46.56000 15.261
46.72000 14.101
46.88000 21.190
47.04000 16.253
47.20000 14.261
47.36000 11.081
47.52000 15.321
47.68000 13.077
47.84000 10.041
48.00000 10.136
48.16000 6.118
48.32000 5.027
48.48000 12.201
48.64000 16.256
48.80000 9.056
48.96000 9.085
49.12000 20.318
49.28000 18.221
49.44000 13.133
49.60000 14.215
49.76000 16.177
49.92000 16.247
50.08000 14.284
50.24000 11.153
50.40000 9.153
50.56000 13.180
50.72000 12.216
50.88000 9.285
51.04000 12.202
51.20000 11.162
51.36000 21.410
51.52000 13.195
51.68000 12.150
51.84000 14.289
52.00000 8.133
52.16000 6.027
52.32000 6.127
52.48000 9.046
52.64000 11.139
52.80000 7.091
52.96000 6.033
53.12000 18.390
53.28000 16.079
53.44000 16.293
53.60000 15.088
53.76000 3.146
53.92000 13.179
54.08000 9.185
54.24000 13.176
54.40000 8.135
54.56000 11.131
54.72000 8.078
54.88000 4.055
55.04000 8.168
55.20000 13.173
55.36000 11.055
55.52000 8.189
55.68000 14.107
55.84000 7.130
56.00000 10.144
56.16000 13.102
56.32000 11.130
56.48000 17.212
56.64000 12.172
56.80000 9.190
56.96000 12.227
57.12000 16.335
57.28000 10.115
57.44000 4.075
57.60000 10.455
57.76000 12.163
57.92000 5.165
58.08000 6.147
58.24000 13.055
58.40000 4.042
58.56000 9.018
58.72000 10.085
58.88000 8.022
59.04000 14.184
59.20000 7.055
59.36000 11.217
59.52000 5.956
59.68000 15.147
59.84000 5.068
60.00000 5.055
60.16000 5.071
60.32000 10.189
60.48000 13.078
60.64000 5.012
60.80000 4.065
60.96000 8.087
61.12000 4.153
61.28000 9.104
61.44000 11.188
61.60000 8.121
61.76000 7.106
61.92000 10.124
62.08000 9.103
62.24000 7.007
62.40000 9.032
62.56000 9.155
62.72000 13.147
62.88000 9.107
63.04000 5.981
63.20000 6.048
63.36000 11.060
63.52000 4.048
63.68000 13.059
63.84000 12.303
64.00000 6.154
64.16000 8.071
64.32000 10.223
64.48000 10.015
64.64000 16.030
64.80000 6.161
64.96000 8.077
65.00000 6.118

File: 01092025_BTO_omega_1_001_31_-25-000_0-000.xy
20.00000 15.199
20.16000 16.171
20.32000 21.167
20.48000 17.373
20.64000 14.188
20.80000 18.222
20.96000 16.230
21.12000 19.173
21.28000 18.044
21.44000 18.088
21.60000 16.283
21.76000 28.420
21.92000 18.198
22.08000 18.438
22.24000 29.547
22.40000 16.191
22.56000 22.031
22.72000 34.505
22.88000 14.111
23.04000 14.165
23.20000 26.180
23.36000 20.286
23.52000 27.442
23.68000 22.260
23.84000 14.412
24.00000 20.173
24.16000 16.462
24.32000 33.461
24.48000 24.299
24.64000 25.459
24.80000 31.258
24.96000 31.417
25.12000 37.559
25.28000 31.605
25.44000 33.544
25.60000 27.542
25.76000 36.767
25.92000 39.742
26.08000 38.491
26.24000 36.495
26.40000 38.295
26.56000 34.311
26.72000 28.359
26.88000 29.029
27.04000 42.403
27.20000 32.377
27.36000 38.573
27.52000 39.314
27.68000 37.421
27.84000 31.445
28.00000 33.376
28.16000 35.587
28.32000 29.446
28.48000 31.280
28.64000 34.740
28.80000 29.355
28.96000 29.285
29.12000 33.484
29.28000 28.491
29.44000 26.293
29.60000 27.483
29.76000 29.492
29.92000 18.258
30.08000 36.248
30.24000 31.237
30.40000 27.285
30.56000 16.126
30.72000 23.293
30.88000 30.175
31.04000 19.261
31.20000 15.125
31.36000 14.176
31.52000 19.418
31.68000 21.216
31.84000 20.093
32.00000 25.489
32.16000 28.352
32.32000 23.335
32.48000 22.379
32.64000 26.296
32.80000 19.993
32.96000 15.240
33.12000 17.405
33.28000 20.202
33.44000 14.202
33.60000 13.033
33.76000 16.298
33.92000 9.078
34.08000 18.017
34.24000 10.037
34.40000 20.178
34.56000 14.332
34.72000 12.198
34.88000 20.198
35.04000 20.288
35.20000 13.021
35.36000 13.247
35.52000 14.326
35.68000 18.276
35.84000 13.091
36.00000 14.311
36.16000 10.242
36.32000 22.404
36.48000 12.159
36.64000 10.164
36.80000 16.265
36.96000 16.270
37.12000 10.981
37.28000 14.295
37.44000 11.088
37.60000 12.179
37.76000 20.182
37.92000 14.248
38.08000 11.197
38.24000 13.140
38.40000 18.294
38.56000 17.244
38.72000 9.084
38.88000 7.121
39.04000 21.143
39.20000 19.316
39.36000 10.152
39.52000 12.110
39.68000 18.080
39.84000 18.251
40.00000 21.195
40.16000 13.151
40.32000 10.198
40.48000 9.075
40.64000 17.181
40.80000 11.103
40.96000 15.263
41.12000 10.211
41.28000 11.114
41.44000 13.123
41.60000 9.067
41.76000 11.121
41.92000 10.155
42.08000 15.412
42.24000 15.159
42.40000 15.177
42.56000 15.282
42.72000 14.160
42.88000 14.201
43.04000 13.072
43.20000 13.017
43.36000 18.311
43.52000 9.048
43.68000 14.285
43.84000 15.117
44.00000 19.249
44.16000 20.111
44.32000 17.329
44.48000 19.205
44.64000 17.342
44.80000 15.251
44.96000 10.102
45.12000 8.096
45.28000 7.073
45.44000 10.125
45.60000 10.128
45.76000 12.161
45.92000 18.177
46.08000 27.330
46.24000 16.230
46.40000 23.351
46.56000 19.435
46.72000 13.227
46.88000 11.313
47.04000 17.162
47.20000 17.328
47.36000 9.189
47.52000 7.997
47.68000 14.040
47.84000 13.106
48.00000 16.225
48.16000 10.198
48.32000 20.516
48.48000 13.235
48.64000 21.204
48.80000 10.171
48.96000 16.124
49.12000 13.219
49.28000 16.149
49.44000 13.182
49.60000 12.040
49.76000 14.221
49.92000 11.055
50.08000 12.216
50.24000 10.078
50.40000 12.328
50.56000 12.127
50.72000 12.343
50.88000 13.128
51.04000 10.225
51.20000 13.216
51.36000 11.199
51.52000 8.169
51.68000 16.289
51.84000 15.142
52.00000 13.074
52.16000 11.066
52.32000 18.237
52.48000 14.180
52.64000 11.239
52.80000 7.066
52.96000 11.020
53.12000 12.209
53.28000 12.128
53.44000 6.093
53.60000 17.254
53.76000 12.192
53.92000 17.339
54.08000 5.950
54.24000 7.098
54.40000 16.234
54.56000 12.147
54.72000 17.031
54.88000 14.264
55.04000 9.089
55.20000 7.149
55.36000 11.236
55.52000 13.147
55.68000 10.180
55.84000 9.086
56.00000 11.003
56.16000 12.105
56.32000 9.119
56.48000 10.044
56.64000 7.064
56.80000 9.267
56.96000 12.147
57.12000 6.088
57.28000 4.055
57.44000 14.135
57.60000 9.016
57.76000 8.103
57.92000 12.194
58.08000 10.060
58.24000 15.231
58.40000 9.027
58.56000 14.233
58.72000 13.176
58.88000 6.048
59.04000 7.142
59.20000 7.138
59.36000 9.062
59.52000 10.155
59.68000 7.096
59.84000 14.268
60.00000 8.164
60.16000 6.093
60.32000 10.174
60.48000 8.035
60.64000 9.099
60.80000 10.135
60.96000 3.064
61.12000 8.092
61.28000 8.009
61.44000 9.089
61.60000 5.135
61.76000 10.141
61.92000 9.090
62.08000 4.049
62.24000 9.103
62.40000 11.177
62.56000 4.090
62.72000 7.083
62.88000 6.055
63.04000 3.044
63.20000 12.136
63.36000 9.050
63.52000 8.079
63.68000 11.019
63.84000 7.040
64.00000 7.050
64.16000 2.984
64.32000 7.102
64.48000 9.251
64.64000 4.002
64.80000 8.120
64.96000 6.039
65.00000 8.025

File: 01092025_BTO_omega_1_001_32_-37-500_0-000.xy
20.00000 13.187
20.16000 25.506
20.32000 25.304
20.48000 23.233
20.64000 19.342
20.80000 17.450
20.96000 14.266
21.12000 24.252
21.28000 19.176
21.44000 15.123
21.60000 22.282
21.76000 26.187
21.92000 16.199
22.08000 19.253
22.24000 24.262
22.40000 30.502
22.56000 19.195
22.72000 28.393
22.88000 28.405
23.04000 18.196
23.20000 24.386
23.36000 18.064
23.52000 20.240
23.68000 22.347
23.84000 35.536
24.00000 23.407
24.16000 26.267
24.32000 24.232
24.48000 30.329
24.64000 21.254
24.80000 22.260
24.96000 24.104
25.12000 27.216
25.28000 33.173
25.44000 27.355
25.60000 26.116
25.76000 28.492
25.92000 23.415
26.08000 27.107
26.24000 45.691
26.40000 39.158
26.56000 34.193
26.72000 28.427
26.88000 30.418
27.04000 31.372
27.20000 34.407
27.36000 22.207
27.52000 37.657
27.68000 29.236
27.84000 25.205
28.00000 37.622
28.16000 44.375
28.32000 29.301
28.48000 49.643
28.64000 39.360
28.80000 30.685
28.96000 34.546
29.12000 38.507
29.28000 34.561
29.44000 28.277
29.60000 26.366
29.76000 28.299
29.92000 21.367
30.08000 24.473
30.24000 29.366
30.40000 35.645
30.56000 20.259
30.72000 25.427
30.88000 14.057
31.04000 21.408
31.20000 21.596
31.36000 20.214
31.52000 23.477
31.68000 22.073
31.84000 26.067
32.00000 25.348
32.16000 29.374
32.32000 19.443
32.48000 25.129
32.64000 23.519
32.80000 15.143
32.96000 16.181
33.12000 13.160
33.28000 20.160
33.44000 21.223
33.60000 16.117
33.76000 16.135
33.92000 14.059
34.08000 19.411
34.24000 11.229
34.40000 17.133
34.56000 15.069
34.72000 12.054
34.88000 12.186
35.04000 8.101
35.20000 9.131
35.36000 18.294
35.52000 11.126
35.68000 19.354
35.84000 12.181
36.00000 14.263
36.16000 9.169
36.32000 7.073
36.48000 12.331
36.64000 15.394
36.80000 15.163
36.96000 11.185
37.12000 20.294
37.28000 10.247
37.44000 9.104
37.60000 12.014
37.76000 17.208
37.92000 12.105
38.08000 10.132
38.24000 12.158
38.40000 14.197
38.56000 14.012
38.72000 12.142
38.88000 12.293
39.04000 11.318
39.20000 11.047
39.36000 17.234
39.52000 17.156
39.68000 20.043
39.84000 19.320
40.00000 14.995
40.16000 23.117
40.32000 16.195
40.48000 15.276
40.64000 15.133
40.80000 9.174
40.96000 8.011
41.12000 9.193
41.28000 10.147
41.44000 10.150
41.60000 12.116
41.76000 8.064
41.92000 21.496
42.08000 13.030
42.24000 17.113
42.40000 21.338
42.56000 15.242
42.72000 8.043
42.88000 9.111
43.04000 12.017
43.20000 9.147
43.36000 11.246
43.52000 20.526
43.68000 15.090
43.84000 15.223
44.00000 20.562
44.16000 15.114
44.32000 16.347
44.48000 14.130
44.64000 13.113
44.80000 21.061
44.96000 14.101
45.12000 13.081
45.28000 12.130
45.44000 8.067
45.60000 8.987
45.76000 11.037
45.92000 21.392
46.08000 10.188
46.24000 17.123
46.40000 24.286
46.56000 17.325
46.72000 11.183
46.88000 16.267
47.04000 15.221
47.20000 9.254
47.36000 18.147
47.52000 10.035
47.68000 15.112
47.84000 16.141
48.00000 12.034
48.16000 12.154
48.32000 10.183
48.48000 8.243
48.64000 10.194
48.80000 15.084
48.96000 14.201
49.12000 12.214
49.28000 14.319
49.44000 13.112
49.60000 8.055
49.76000 9.124
49.92000 21.126
50.08000 10.121
50.24000 15.190
50.40000 18.241
50.56000 14.202
50.72000 12.276
50.88000 11.186
51.04000 17.277
51.20000 12.129
51.36000 8.108
51.52000 12.215
51.68000 10.152
51.84000 9.171
52.00000 10.098
52.16000 15.180
52.32000 5.067
52.48000 14.219
52.64000 11.251
52.80000 13.169
52.96000 10.173
53.12000 5.056
53.28000 11.001
53.44000 9.123
53.60000 11.088
53.76000 11.193
53.92000 7.193
54.08000 9.162
54.24000 12.192
54.40000 13.063
54.56000 10.124
54.72000 11.971
54.88000 7.035
55.04000 12.083
55.20000 6.128
55.36000 12.154
55.52000 11.936
55.68000 13.258
55.84000 11.072
56.00000 6.119
56.16000 12.101
56.32000 9.257
56.48000 11.107
56.64000 5.087
56.80000 10.144
56.96000 7.124
57.12000 7.146
57.28000 6.968
57.44000 6.131
57.60000 6.123
57.76000 12.114
57.92000 9.151
58.08000 15.111
58.24000 10.158
58.40000 10.224
58.56000 18.206
58.72000 5.073
58.88000 6.092
59.04000 5.003
59.20000 7.095
59.36000 9.131
59.52000 10.054
59.68000 5.224
59.84000 4.011
60.00000 8.021
60.16000 10.237
60.32000 11.276
60.48000 5.005
60.64000 6.961
60.80000 10.268
60.96000 9.130
61.12000 5.986
61.28000 8.053
61.44000 8.074
61.60000 14.077
61.76000 11.240
61.92000 6.110
62.08000 6.000
62.24000 10.206
62.40000 8.059
62.56000 6.028
62.72000 5.976
62.88000 5.061
63.04000 9.129
63.20000 5.025
63.36000 1.997
63.52000 6.028
63.68000 5.000
63.84000 10.074
64.00000 2.043
64.16000 11.209
64.32000 5.124
64.48000 6.002
64.64000 10.058
64.80000 10.190
64.96000 7.047
65.00000 7.090