Folder: Master-Thesis/XRD/11-09-2025/XY Data

File: 01092025_BTO_deposition_001_01_9-010_4-339.xy
20.00000 8.223
20.16000 8.201
20.32000 10.187
20.48000 5.184
20.64000 7.197
20.80000 17.547
20.96000 4.148
21.12000 9.377
21.28000 9.132
21.44000 8.257
21.60000 10.204
21.76000 8.211
21.92000 11.313
22.08000 9.291
22.24000 13.374
22.40000 10.342
22.56000 5.103
22.72000 5.181
22.88000 15.363
23.04000 13.340
23.20000 10.161
23.36000 13.405
23.52000 7.270
23.68000 8.174
23.84000 14.450
24.00000 13.386
24.16000 15.517
24.32000 11.339
24.48000 9.338
24.64000 14.391
24.80000 11.349
24.96000 15.587
25.12000 18.663
25.28000 23.654
25.44000 11.406
25.60000 11.317
25.76000 20.624
25.92000 19.695
26.08000 14.638
26.24000 24.735
26.40000 9.242
26.56000 23.767
26.72000 17.557
26.88000 18.760
27.04000 22.914
27.20000 23.864
27.36000 15.667
27.52000 21.569
27.68000 12.407
27.84000 21.819
28.00000 27.964
28.16000 10.484
28.32000 19.785
28.48000 19.669
28.64000 24.800
28.80000 24.593
28.96000 24.796
29.12000 12.372
29.28000 8.239
29.44000 16.609
29.60000 16.774
29.76000 15.298
29.92000 10.353
30.08000 18.715
30.24000 8.224
30.40000 16.565
30.56000 15.587
30.72000 11.344
30.88000 9.301
31.04000 7.260
31.20000 9.318
31.36000 8.348
31.52000 12.427
31.68000 9.333
31.84000 2.012
32.00000 14.461
32.16000 6.159
32.32000 8.354
32.48000 6.299
32.64000 7.145
32.80000 10.278
32.96000 8.378
33.12000 4.096
33.28000 14.564
33.44000 7.218
33.60000 16.465
33.76000 4.162
33.92000 12.442
34.08000 7.190
34.24000 7.282
34.40000 9.338
34.56000 8.321
34.72000 4.096
34.88000 4.183
35.04000 7.181
35.20000 8.202
35.36000 4.207
35.52000 16.506
35.68000 12.343
35.84000 8.239
36.00000 4.131
36.16000 5.185
36.32000 7.164
36.48000 9.275
36.64000 11.382
36.80000 7.248
36.96000 7.222
37.12000 3.115
37.28000 10.432
37.44000 7.261
37.60000 10.256
37.76000 8.153
37.92000 4.049
38.08000 7.170
38.24000 7.189
38.40000 9.155
38.56000 7.326
38.72000 7.439
38.88000 11.364
39.04000 7.312
39.20000 12.427
39.36000 9.312
39.52000 10.169
39.68000 10.322
39.84000 4.147
40.00000 8.315
40.16000 5.137
40.32000 7.179
40.48000 11.178
40.64000 4.163
40.80000 11.236
40.96000 5.271
41.12000 9.378
41.28000 4.194
41.44000 2.084
41.60000 5.170
41.76000 5.103
41.92000 8.203
42.08000 12.392
42.24000 12.379
42.40000 10.420
42.56000 7.345
42.72000 8.286
42.88000 8.215
43.04000 5.127
43.20000 4.159
43.36000 5.089
43.52000 7.237
43.68000 7.177
43.84000 10.186
44.00000 6.124
44.16000 11.369
44.32000 9.263
44.48000 5.110
44.64000 9.222
44.80000 5.164
44.96000 8.348
45.12000 7.273
45.28000 9.172
45.44000 10.381
45.60000 6.247
45.76000 11.357
45.92000 11.378
46.08000 8.282
46.24000 6.241
46.40000 6.061
46.56000 7.157
46.72000 8.269
46.88000 8.337
47.04000 7.175
47.20000 6.225
47.36000 3.093
47.52000 6.176
47.68000 8.263
47.84000 7.288
48.00000 5.168
48.16000 4.139
48.32000 5.194
48.48000 2.096
48.64000 8.387
48.80000 7.228
48.96000 15.338
49.12000 5.205
49.28000 8.296
49.44000 3.092
49.60000 7.226
49.76000 6.215
49.92000 8.268
50.08000 9.519
50.24000 6.122
50.40000 7.412
50.56000 0.000
50.72000 5.242
50.88000 2.049
51.04000 6.287
51.20000 3.051
51.36000 7.191
51.52000 6.136
51.68000 6.153
51.84000 6.264
52.00000 10.230
52.16000 7.244
52.32000 8.278
52.48000 5.187
52.64000 12.514
52.80000 6.326
52.96000 6.228
53.12000 6.092
53.28000 11.348
53.44000 12.442
53.60000 234.748
53.76000 493.908
53.92000 216.295
54.08000 5.196
54.24000 5.150
54.40000 8.197
54.56000 14.469
54.72000 5.187
54.88000 17.627
55.04000 16.611
55.20000 15.421
55.36000 15.522
55.52000 20.653
55.68000 8.317
55.84000 12.511
56.00000 11.382
56.16000 11.270
56.32000 10.338
56.48000 8.327
56.64000 13.358
56.80000 7.208
56.96000 5.223
57.12000 13.455
57.28000 9.181
57.44000 4.109
57.60000 5.169
57.76000 4.058
57.92000 4.082
58.08000 8.255
58.24000 4.138
58.40000 3.090
58.56000 5.121
58.72000 1.052
58.88000 6.109
59.04000 5.216
59.20000 6.149
59.36000 4.173
59.52000 3.042
59.68000 2.052
59.84000 4.153
60.00000 3.097
60.16000 2.034
60.32000 1.037
60.48000 2.072
60.64000 8.323
60.80000 7.331
60.96000 3.094
61.12000 2.089
61.28000 6.220
61.44000 7.185
61.60000 8.199
61.76000 4.174
61.92000 7.242
62.08000 3.072
62.24000 6.333
62.40000 4.107
62.56000 4.120
62.72000 3.103
62.88000 5.202
63.04000 3.086
63.20000 3.080
63.36000 6.208
63.52000 0.998
63.68000 8.218
63.84000 4.142
64.00000 5.168
64.16000 1.048
64.32000 1.035
64.48000 1.059
64.64000 4.071
64.80000 4.160
64.96000 4.115
65.00000 2.067

File: 01092025_BTO_deposition_001_02_-9-010_4-339.xy
20.00000 9.288
20.16000 6.194
20.32000 9.355
20.48000 10.370
20.64000 14.336
20.80000 10.378
20.96000 13.440
21.12000 11.335
21.28000 13.471
21.44000 14.490
21.60000 11.396
21.76000 13.554
21.92000 4.167
22.08000 7.227
22.24000 7.140
22.40000 11.468
22.56000 9.296
22.72000 5.107
22.88000 9.274
23.04000 6.249
23.20000 16.604
23.36000 13.405
23.52000 9.313
23.68000 3.066
23.84000 11.490
24.00000 10.351
24.16000 7.246
24.32000 15.428
24.48000 9.388
24.64000 16.349
24.80000 10.262
24.96000 11.356
25.12000 9.359
25.28000 13.397
25.44000 13.467
25.60000 12.430
25.76000 20.623
25.92000 28.875
26.08000 14.438
26.24000 15.415
26.40000 19.606
26.56000 8.229
26.72000 15.436
26.88000 12.358
27.04000 19.500
27.20000 16.585
27.36000 15.354
27.52000 8.319
27.68000 24.949
27.84000 26.778
28.00000 19.671
28.16000 14.483
28.32000 20.903
28.48000 14.454
28.64000 20.651
28.80000 15.416
28.96000 14.471
29.12000 20.812
29.28000 14.451
29.44000 12.501
29.60000 15.401
29.76000 15.545
29.92000 14.466
30.08000 13.316
30.24000 10.335
30.40000 21.820
30.56000 10.335
30.72000 7.259
30.88000 12.467
31.04000 7.211
31.20000 19.596
31.36000 13.258
31.52000 5.059
31.68000 14.392
31.84000 13.423
32.00000 12.562
32.16000 4.132
32.32000 7.294
32.48000 15.524
32.64000 7.190
32.80000 7.200
32.96000 8.227
33.12000 7.189
33.28000 10.368
33.44000 6.089
33.60000 3.149
33.76000 8.269
33.92000 7.166
34.08000 4.149
34.24000 11.304
34.40000 4.067
34.56000 7.234
34.72000 13.588
34.88000 7.280
35.04000 4.099
35.20000 10.357
35.36000 3.112
35.52000 6.128
35.68000 6.179
35.84000 5.206
36.00000 4.065
36.16000 6.099
36.32000 11.298
36.48000 6.175
36.64000 5.130
36.80000 5.176
36.96000 7.206
37.12000 9.246
37.28000 7.191
37.44000 6.303
37.60000 3.234
37.76000 10.222
37.92000 4.133
38.08000 6.269
38.24000 3.050
38.40000 5.109
38.56000 7.187
38.72000 7.277
38.88000 4.079
39.04000 10.516
39.20000 1.019
39.36000 7.248
39.52000 7.283
39.68000 6.178
39.84000 7.297
40.00000 10.280
40.16000 9.308
40.32000 6.269
40.48000 8.381
40.64000 4.076
40.80000 5.098
40.96000 4.089
41.12000 7.092
41.28000 9.256
41.44000 11.471
41.60000 2.048
41.76000 12.360
41.92000 3.092
42.08000 10.196
42.24000 8.144
42.40000 7.226
42.56000 6.259
42.72000 9.419
42.88000 9.302
43.04000 3.034
43.20000 9.113
43.36000 7.148
43.52000 6.183
43.68000 3.094
43.84000 3.091
44.00000 8.262
44.16000 6.174
44.32000 5.125
44.48000 11.483
44.64000 6.220
44.80000 7.249
44.96000 3.069
45.12000 6.207
45.28000 6.159
45.44000 8.196
45.60000 3.096
45.76000 4.101
45.92000 9.365
46.08000 8.200
46.24000 6.235
46.40000 10.216
46.56000 7.226
46.72000 5.091
46.88000 9.210
47.04000 5.125
47.20000 3.111
47.36000 8.229
47.52000 9.306
47.68000 6.247
47.84000 7.200
48.00000 7.281
48.16000 5.118
48.32000 4.125
48.48000 8.168
48.64000 9.358
48.80000 5.080
48.96000 5.183
49.12000 6.214
49.28000 11.358
49.44000 8.371
49.60000 7.341
49.76000 7.348
49.92000 5.116
50.08000 7.278
50.24000 11.341
50.40000 8.250
50.56000 5.108
50.72000 6.250
50.88000 4.137
51.04000 4.103
51.20000 4.155
51.36000 5.059
51.52000 4.178
51.68000 5.152
51.84000 6.227
52.00000 6.205
52.16000 7.144
52.32000 3.093
52.48000 3.170
52.64000 8.334
52.80000 5.151
52.96000 5.170
53.12000 10.222
53.28000 4.155
53.44000 27.866
53.60000 377.790
53.76000 553.247
53.92000 196.607
54.08000 5.127
54.24000 9.283
54.40000 10.371
54.56000 7.348
54.72000 17.538
54.88000 9.273
55.04000 13.630
55.20000 14.576
55.36000 18.502
55.52000 21.873
55.68000 14.374
55.84000 11.465
56.00000 15.560
56.16000 8.311
56.32000 12.415
56.48000 10.324
56.64000 6.110
56.80000 6.210
56.96000 5.115
57.12000 6.191
57.28000 4.141
57.44000 4.140
57.60000 5.166
57.76000 9.349
57.92000 9.353
58.08000 12.335
58.24000 6.121
58.40000 3.120
58.56000 8.162
58.72000 7.278
58.88000 7.217
59.04000 4.143
59.20000 4.046
59.36000 7.178
59.52000 6.200
59.68000 6.236
59.84000 1.051
60.00000 8.251
60.16000 6.184
60.32000 6.225
60.48000 5.166
60.64000 5.142
60.80000 2.022
60.96000 1.006
61.12000 2.090
61.28000 3.079
61.44000 7.318
61.60000 5.212
61.76000 4.090
61.92000 5.123
62.08000 3.049
62.24000 3.039
62.40000 11.274
62.56000 2.044
62.72000 3.101
62.88000 2.046
63.04000 5.341
63.20000 3.104
63.36000 8.267
63.52000 6.188
63.68000 6.296
63.84000 4.098
64.00000 2.055
64.16000 3.173
64.32000 7.180
64.48000 6.261
64.64000 5.154
64.80000 3.072
64.96000 4.167
65.00000 3.045

File: 01092025_BTO_omega_0_5_001_02_25-000_0-000.xy
20.00000 15.133
20.16000 19.316
20.32000 10.145
20.48000 18.216
20.64000 16.396
20.80000 7.067
20.96000 7.059
21.12000 14.266
21.28000 16.214
21.44000 17.396
21.60000 16.163
21.76000 10.133
21.92000 11.153
22.08000 15.227
22.24000 22.209
22.40000 16.194
22.56000 17.263
22.72000 15.424
22.88000 17.176
23.04000 15.399
23.20000 13.129
23.36000 11.041
23.52000 18.251
23.68000 12.197
23.84000 21.292
24.00000 18.167
24.16000 14.271
24.32000 22.114
24.48000 17.366
24.64000 26.980
24.80000 21.199
24.96000 20.281
25.12000 18.211
25.28000 19.099
25.44000 22.434
25.60000 22.277
25.76000 26.391
25.92000 30.506
26.08000 26.534
26.24000 30.691
26.40000 15.229
26.56000 30.609
26.72000 28.222
26.88000 34.337
27.04000 33.268
27.20000 28.253
27.36000 27.448
27.52000 27.628
27.68000 26.641
27.84000 23.232
28.00000 30.565
28.16000 33.505
28.32000 28.401
28.48000 20.046
28.64000 27.504
28.80000 23.256
28.96000 34.561
29.12000 20.273
29.28000 20.204
29.44000 21.374
29.60000 26.345
29.76000 21.352
29.92000 38.601
30.08000 16.190
30.24000 22.247
30.40000 20.336
30.56000 17.278
30.72000 24.447
30.88000 19.323
31.04000 18.216
31.20000 26.418
31.36000 14.191
31.52000 22.140
31.68000 11.177
31.84000 17.109
32.00000 15.249
32.16000 21.498
32.32000 6.104
32.48000 16.016
32.64000 14.200
32.80000 9.003
32.96000 8.199
33.12000 10.074
33.28000 20.437
33.44000 13.050
33.60000 7.112
33.76000 12.292
33.92000 8.267
34.08000 12.150
34.24000 8.065
34.40000 10.142
34.56000 8.121
34.72000 7.924
34.88000 5.097
35.04000 13.227
35.20000 8.168
35.36000 7.045
35.52000 9.115
35.68000 2.034
35.84000 10.074
36.00000 12.022
36.16000 7.132
36.32000 8.037
36.48000 12.232
36.64000 7.022
36.80000 5.086
36.96000 4.117
37.12000 14.224
37.28000 11.187
37.44000 7.986
37.60000 7.057
37.76000 6.150
37.92000 10.993
38.08000 9.122
38.24000 6.072
38.40000 7.120
38.56000 10.101
38.72000 13.395
38.88000 12.162
39.04000 13.095
39.20000 12.060
39.36000 8.179
39.52000 11.251
39.68000 8.959
39.84000 10.150
40.00000 7.082
40.16000 12.138
40.32000 16.033
40.48000 6.040
40.64000 7.965
40.80000 14.315
40.96000 6.118
41.12000 5.062
41.28000 11.105
41.44000 7.038
41.60000 10.036
41.76000 11.214
41.92000 12.171
42.08000 7.019
42.24000 15.043
42.40000 13.155
42.56000 10.052
42.72000 8.104
42.88000 10.161
43.04000 8.174
43.20000 9.111
43.36000 12.162
43.52000 14.122
43.68000 14.250
43.84000 12.372
44.00000 8.078
44.16000 10.107
44.32000 8.043
44.48000 13.243
44.64000 14.215
44.80000 8.207
44.96000 9.094
45.12000 10.088
45.28000 10.077
45.44000 10.090
45.60000 10.146
45.76000 12.163
45.92000 9.262
46.08000 8.212
46.24000 13.197
46.40000 10.062
46.56000 5.046
46.72000 12.119
46.88000 14.065
47.04000 7.130
47.20000 13.274
47.36000 9.030
47.52000 8.153
47.68000 7.170
47.84000 10.060
48.00000 7.115
48.16000 5.915
48.32000 15.088
48.48000 9.255
48.64000 8.103
48.80000 11.102
48.96000 4.029
49.12000 7.174
49.28000 7.097
49.44000 11.049
49.60000 9.202
49.76000 6.024
49.92000 10.154
50.08000 7.197
50.24000 6.021
50.40000 4.114
50.56000 12.289
50.72000 12.127
50.88000 4.054
51.04000 8.093
51.20000 9.052
51.36000 4.060
51.52000 9.025
51.68000 4.005
51.84000 10.125
52.00000 9.163
52.16000 12.049
52.32000 6.123
52.48000 6.039
52.64000 3.002
52.80000 5.133
52.96000 6.094
53.12000 14.130
53.28000 5.115
53.44000 8.052
53.60000 9.029
53.76000 9.074
53.92000 5.072
54.08000 6.118
54.24000 4.063
54.40000 13.214
54.56000 5.957
54.72000 10.031
54.88000 10.161
55.04000 7.085
55.20000 7.082
55.36000 10.168
55.52000 9.090
55.68000 3.053
55.84000 3.069
56.00000 9.052
56.16000 9.029
56.32000 7.206
56.48000 6.075
56.64000 7.026
56.80000 7.068
56.96000 9.125
57.12000 10.072
57.28000 7.263
57.44000 6.080
57.60000 8.157
57.76000 8.230
57.92000 7.072
58.08000 8.162
58.24000 4.922
58.40000 6.124
58.56000 7.055
58.72000 5.121
58.88000 6.074
59.04000 5.020
59.20000 3.053
59.36000 6.058
59.52000 5.973
59.68000 2.956
59.84000 3.079
60.00000 4.957
60.16000 9.140
60.32000 4.117
60.48000 3.019
60.64000 3.117
60.80000 7.071
60.96000 9.054
61.12000 3.051
61.28000 7.952
61.44000 5.077
61.60000 0.000
61.76000 6.077
61.92000 3.028
62.08000 5.085
62.24000 7.003
62.40000 3.042
62.56000 4.074
62.72000 7.105
62.88000 5.091
63.04000 7.133
63.20000 5.084
63.36000 6.043
63.52000 8.017
63.68000 3.030
63.84000 0.993
64.00000 4.007
64.16000 2.971
64.32000 7.188
64.48000 3.078
64.64000 2.060
64.80000 2.044
64.96000 3.017
65.00000 1.008

File: 01092025_BTO_omega_0_5_001_05_11-262_5-424.xy
20.00000 19.207
20.16000 19.209
20.32000 17.301
20.48000 16.290
20.64000 17.102
20.80000 26.438
20.96000 18.071
21.12000 28.257
21.28000 20.313
21.44000 21.179
21.60000 24.223
21.76000 21.241
21.92000 17.275
22.08000 19.289
22.24000 26.280
22.40000 32.746
22.56000 22.391
22.72000 25.199
22.88000 28.398
23.04000 18.327
23.20000 22.412
23.36000 26.448
23.52000 39.606
23.68000 35.418
23.84000 32.422
24.00000 34.293
24.16000 30.259
24.32000 35.420
24.48000 30.217
24.64000 37.263
24.80000 50.880
24.96000 34.458
25.12000 39.595
25.28000 39.418
25.44000 37.422
25.60000 38.477
25.76000 43.698
25.92000 48.398
26.08000 48.698
26.24000 44.494
26.40000 54.787
26.56000 46.497
26.72000 57.654
26.88000 71.836
27.04000 71.117
27.20000 63.816
27.36000 63.189
27.52000 42.575
27.68000 55.963
27.84000 61.828
28.00000 59.781
28.16000 52.471
28.32000 57.807
28.48000 56.686
28.64000 42.422
28.80000 59.719
28.96000 63.748
29.12000 60.825
29.28000 60.711
29.44000 52.069
29.60000 45.554
29.76000 48.731
29.92000 45.634
30.08000 47.799
30.24000 49.612
30.40000 39.589
30.56000 38.749
30.72000 38.526
30.88000 47.466
31.04000 37.526
31.20000 41.513
31.36000 30.277
31.52000 43.710
31.68000 25.547
31.84000 24.190
32.00000 31.427
32.16000 24.346
32.32000 29.387
32.48000 24.244
32.64000 19.353
32.80000 35.475
32.96000 29.237
33.12000 30.233
33.28000 27.538
33.44000 21.276
33.60000 19.377
33.76000 23.512
33.92000 25.190
34.08000 16.113
34.24000 23.180
34.40000 21.303
34.56000 17.292
34.72000 14.087
34.88000 23.188
35.04000 24.313
35.20000 15.133
35.36000 13.154
35.52000 11.200
35.68000 14.153
35.84000 16.139
36.00000 19.288
36.16000 18.250
36.32000 18.071
36.48000 13.041
36.64000 26.095
36.80000 18.263
36.96000 24.249
37.12000 25.311
37.28000 19.374
37.44000 22.536
37.60000 22.359
37.76000 18.292
37.92000 22.328
38.08000 35.437
38.24000 32.096
38.40000 9.014
38.56000 23.522
38.72000 15.234
38.88000 24.335
39.04000 23.134
39.20000 17.191
39.36000 22.286
39.52000 21.199
39.68000 29.273
39.84000 23.169
40.00000 20.103
40.16000 18.098
40.32000 30.698
40.48000 18.422
40.64000 15.329
40.80000 21.188
40.96000 22.266
41.12000 20.276
41.28000 22.394
41.44000 24.282
41.60000 25.327
41.76000 25.295
41.92000 25.357
42.08000 17.386
42.24000 17.049
42.40000 18.284
42.56000 15.337
42.72000 20.218
42.88000 22.214
43.04000 28.702
43.20000 14.044
43.36000 22.194
43.52000 26.543
43.68000 26.211
43.84000 20.292
44.00000 23.163
44.16000 23.316
44.32000 21.392
44.48000 24.493
44.64000 24.264
44.80000 22.401
44.96000 19.111
45.12000 18.215
45.28000 21.295
45.44000 21.389
45.60000 13.099
45.76000 25.322
45.92000 22.283
46.08000 23.322
46.24000 23.410
46.40000 22.309
46.56000 20.208
46.72000 28.493
46.88000 17.240
47.04000 22.042
47.20000 22.228
47.36000 21.334
47.52000 21.130
47.68000 20.369
47.84000 19.370
48.00000 17.179
48.16000 28.484
48.32000 19.228
48.48000 16.249
48.64000 21.370
48.80000 23.283
48.96000 20.217
49.12000 18.363
49.28000 21.391
49.44000 21.288
49.60000 9.261
49.76000 22.238
49.92000 17.277
50.08000 12.235
50.24000 16.210
50.40000 18.203
50.56000 25.330
50.72000 19.056
50.88000 18.151
51.04000 14.131
51.20000 19.130
51.36000 16.163
51.52000 16.091
51.68000 13.139
51.84000 22.096
52.00000 19.277
52.16000 18.460
52.32000 17.343
52.48000 16.385
52.64000 12.260
52.80000 18.228
52.96000 14.111
53.12000 10.057
53.28000 22.139
53.44000 12.132
53.60000 11.171
53.76000 13.150
53.92000 10.026
54.08000 11.055
54.24000 16.416
54.40000 9.158
54.56000 11.166
54.72000 6.093
54.88000 9.956
55.04000 15.178
55.20000 13.144
55.36000 14.283
55.52000 16.244
55.68000 16.331
55.84000 6.070
56.00000 16.371
56.16000 19.257
56.32000 18.180
56.48000 13.103
56.64000 11.101
56.80000 9.001
56.96000 14.410
57.12000 7.167
57.28000 17.289
57.44000 8.051
57.60000 11.160
57.76000 12.214
57.92000 19.342
58.08000 16.110
58.24000 9.228
58.40000 11.134
58.56000 7.158
58.72000 14.327
58.88000 9.263
59.04000 7.104
59.20000 11.047
59.36000 9.113
59.52000 10.101
59.68000 13.034
59.84000 9.157
60.00000 11.092
60.16000 14.342
60.32000 13.242
60.48000 4.086
60.64000 9.130
60.80000 14.059
60.96000 5.001
61.12000 10.066
61.28000 6.155
61.44000 9.297
61.60000 16.153
61.76000 8.113
61.92000 11.081
62.08000 11.234
62.24000 12.157
62.40000 14.268
62.56000 8.042
62.72000 5.001
62.88000 9.102
63.04000 8.998
63.20000 9.103
63.36000 10.129
63.52000 7.100
63.68000 7.050
63.84000 7.017
64.00000 10.072
64.16000 8.114
64.32000 10.030
64.48000 7.039
64.64000 13.062
64.80000 4.057
64.96000 8.097
65.00000 4.969

File: 01092025_BTO_omega_0_5_001_07_-7-794_9-773.xy
20.00000 17.204
20.16000 22.472
20.32000 23.617
20.48000 17.395
20.64000 24.388
20.80000 22.112
20.96000 18.323
21.12000 28.417
21.28000 27.258
21.44000 26.356
21.60000 22.354
21.76000 23.246
21.92000 25.082
22.08000 34.654
22.24000 38.544
22.40000 31.375
22.56000 21.383
22.72000 31.698
22.88000 20.065
23.04000 34.262
23.20000 29.220
23.36000 25.505
23.52000 21.208
23.68000 40.183
23.84000 30.395
24.00000 28.282
24.16000 32.392
24.32000 27.513
24.48000 37.511
24.64000 23.341
24.80000 33.616
24.96000 36.663
25.12000 45.731
25.28000 50.451
25.44000 35.645
25.60000 36.737
25.76000 58.955
25.92000 48.553
26.08000 45.535
26.24000 44.469
26.40000 54.418
26.56000 53.746
26.72000 63.610
26.88000 52.549
27.04000 52.681
27.20000 49.708
27.36000 60.706
27.52000 51.523
27.68000 60.753
27.84000 60.661
28.00000 57.847
28.16000 65.615
28.32000 56.051
28.48000 59.695
28.64000 44.564
28.80000 55.743
28.96000 45.618
29.12000 68.878
29.28000 50.449
29.44000 49.674
29.60000 46.932
29.76000 43.655
29.92000 45.629
30.08000 44.422
30.24000 39.497
30.40000 36.490
30.56000 33.572
30.72000 37.533
30.88000 29.264
31.04000 29.449
31.20000 25.366
31.36000 30.347
31.52000 28.459
31.68000 35.560
31.84000 42.581
32.00000 33.520
32.16000 37.524
32.32000 35.524
32.48000 23.306
32.64000 35.180
32.80000 24.274
32.96000 30.522
33.12000 23.240
33.28000 21.360
33.44000 21.333
33.60000 20.237
33.76000 21.328
33.92000 10.113
34.08000 23.270
34.24000 21.389
34.40000 22.369
34.56000 25.422
34.72000 26.604
34.88000 14.198
35.04000 19.564
35.20000 28.164
35.36000 15.080
35.52000 18.294
35.68000 16.137
35.84000 13.120
36.00000 17.192
36.16000 19.280
36.32000 15.134
36.48000 22.149
36.64000 18.141
36.80000 27.233
36.96000 22.284
37.12000 25.149
37.28000 18.188
37.44000 17.210
37.60000 22.446
37.76000 17.040
37.92000 13.181
38.08000 17.157
38.24000 18.078
38.40000 25.315
38.56000 23.459
38.72000 14.236
38.88000 22.264
39.04000 20.343
39.20000 18.246
39.36000 20.336
39.52000 22.325
39.68000 18.332
39.84000 17.291
40.00000 32.423
40.16000 20.331
40.32000 20.130
40.48000 19.264
40.64000 13.216
40.80000 19.332
40.96000 22.204
41.12000 24.270
41.28000 19.051
41.44000 22.188
41.60000 23.413
41.76000 26.399
41.92000 23.485
42.08000 22.286
42.24000 14.051
42.40000 15.136
42.56000 20.315
42.72000 18.205
42.88000 33.773
43.04000 21.167
43.20000 31.256
43.36000 24.326
43.52000 18.256
43.68000 15.141
43.84000 27.352
44.00000 26.381
44.16000 18.307
44.32000 15.320
44.48000 22.327
44.64000 25.368
44.80000 28.491
44.96000 15.125
45.12000 23.514
45.28000 12.091
45.44000 29.268
45.60000 18.106
45.76000 24.366
45.92000 18.119
46.08000 23.315
46.24000 22.193
46.40000 17.378
46.56000 20.522
46.72000 20.362
46.88000 22.615
47.04000 25.568
47.20000 18.126
47.36000 15.155
47.52000 29.456
47.68000 16.340
47.84000 17.255
48.00000 19.194
48.16000 23.406
48.32000 25.408
48.48000 18.158
48.64000 21.293
48.80000 21.478
48.96000 15.256
49.12000 28.267
49.28000 18.456
49.44000 16.386
49.60000 18.376
49.76000 21.431
49.92000 15.179
50.08000 28.382
50.24000 17.273
50.40000 17.347
50.56000 19.471
50.72000 23.215
50.88000 16.062
51.04000 8.108
51.20000 20.315
51.36000 18.196
51.52000 17.161
51.68000 15.176
51.84000 23.377
52.00000 19.213
52.16000 15.253
52.32000 17.114
52.48000 12.071
52.64000 10.136
52.80000 13.279
52.96000 18.233
53.12000 12.935
53.28000 16.185
53.44000 14.219
53.60000 14.276
53.76000 20.384
53.92000 13.255
54.08000 14.229
54.24000 15.115
54.40000 11.125
54.56000 13.130
54.72000 15.344
54.88000 11.097
55.04000 8.069
55.20000 17.304
55.36000 18.345
55.52000 17.209
55.68000 12.057
55.84000 12.117
56.00000 14.192
56.16000 16.134
56.32000 12.159
56.48000 7.087
56.64000 9.144
56.80000 12.167
56.96000 13.062
57.12000 14.205
57.28000 15.125
57.44000 16.110
57.60000 11.150
57.76000 10.171
57.92000 17.352
58.08000 12.179
58.24000 19.371
58.40000 12.134
58.56000 11.011
58.72000 12.209
58.88000 10.135
59.04000 8.079
59.20000 12.156
59.36000 15.130
59.52000 9.062
59.68000 12.184
59.84000 9.169
60.00000 14.214
60.16000 12.137
60.32000 12.137
60.48000 5.056
60.64000 5.074
60.80000 11.244
60.96000 8.068
61.12000 10.155
61.28000 7.146
61.44000 10.060
61.60000 4.982
61.76000 12.206
61.92000 8.145
62.08000 8.079
62.24000 5.055
62.40000 10.061
62.56000 14.252
62.72000 11.222
62.88000 6.015
63.04000 11.181
63.20000 8.074
63.36000 9.163
63.52000 11.081
63.68000 4.992
63.84000 6.069
64.00000 12.123
64.16000 7.022
64.32000 5.973
64.48000 7.999
64.64000 5.061
64.80000 9.075
64.96000 10.175
65.00000 12.129