Folder: Master-Thesis/XRD/11-09-2025/XY Data (part 2)

File: 01092025_BTO_omega_0_5_001_08_7-794_9-773.xy
20.00000 20.239
20.16000 22.369
20.32000 14.279
20.48000 23.361
20.64000 27.585
20.80000 24.418
20.96000 21.189
21.12000 12.977
21.28000 21.240
21.44000 14.182
21.60000 14.111
21.76000 24.267
21.92000 28.448
22.08000 25.354
22.24000 14.069
22.40000 12.357
22.56000 20.163
22.72000 18.431
22.88000 21.360
23.04000 28.478
23.20000 26.209
23.36000 23.213
23.52000 35.346
23.68000 15.141
23.84000 22.233
24.00000 40.562
24.16000 33.577
24.32000 34.793
24.48000 39.577
24.64000 36.386
24.80000 29.365
24.96000 39.662
25.12000 34.535
25.28000 31.479
25.44000 45.620
25.60000 46.640
25.76000 43.517
25.92000 51.777
26.08000 51.562
26.24000 45.586
26.40000 67.033
26.56000 68.219
26.72000 59.483
26.88000 59.886
27.04000 59.641
27.20000 54.590
27.36000 61.730
27.52000 66.735
27.68000 61.833
27.84000 43.620
28.00000 56.621
28.16000 58.694
28.32000 64.736
28.48000 56.984
28.64000 56.813
28.80000 66.990
28.96000 61.663
29.12000 45.533
29.28000 39.689
29.44000 47.429
29.60000 51.583
29.76000 43.576
29.92000 48.484
30.08000 42.568
30.24000 30.262
30.40000 37.518
30.56000 38.580
30.72000 35.651
30.88000 30.322
31.04000 26.314
31.20000 41.048
31.36000 39.648
31.52000 30.401
31.68000 32.457
31.84000 28.295
32.00000 21.541
32.16000 37.404
32.32000 44.683
32.48000 25.209
32.64000 25.320
32.80000 23.242
32.96000 21.439
33.12000 26.201
33.28000 17.150
33.44000 23.311
33.60000 15.333
33.76000 19.175
33.92000 23.389
34.08000 16.246
34.24000 19.517
34.40000 19.061
34.56000 16.246
34.72000 16.226
34.88000 22.279
35.04000 18.349
35.20000 15.126
35.36000 23.284
35.52000 18.350
35.68000 15.395
35.84000 16.156
36.00000 19.254
36.16000 16.045
36.32000 18.343
36.48000 18.058
36.64000 19.168
36.80000 30.403
36.96000 17.157
37.12000 12.116
37.28000 24.230
37.44000 21.092
37.60000 23.968
37.76000 21.237
37.92000 15.185
38.08000 14.261
38.24000 28.324
38.40000 23.528
38.56000 17.231
38.72000 12.113
38.88000 13.100
39.04000 20.384
39.20000 24.165
39.36000 23.290
39.52000 30.203
39.68000 17.182
39.84000 19.175
40.00000 18.244
40.16000 12.237
40.32000 30.294
40.48000 20.263
40.64000 21.171
40.80000 16.314
40.96000 29.244
41.12000 19.330
41.28000 21.273
41.44000 20.190
41.60000 27.373
41.76000 29.416
41.92000 22.205
42.08000 29.589
42.24000 15.245
42.40000 15.290
42.56000 31.458
42.72000 22.067
42.88000 26.237
43.04000 12.087
43.20000 20.357
43.36000 23.246
43.52000 27.510
43.68000 15.164
43.84000 28.518
44.00000 25.463
44.16000 16.043
44.32000 20.287
44.48000 18.208
44.64000 18.974
44.80000 25.285
44.96000 17.253
45.12000 14.184
45.28000 20.416
45.44000 25.134
45.60000 29.412
45.76000 15.135
45.92000 17.341
46.08000 18.119
46.24000 16.072
46.40000 21.395
46.56000 15.302
46.72000 21.422
46.88000 20.179
47.04000 27.380
47.20000 23.189
47.36000 18.264
47.52000 17.172
47.68000 24.341
47.84000 17.196
48.00000 20.487
48.16000 15.017
48.32000 19.344
48.48000 18.195
48.64000 24.254
48.80000 22.332
48.96000 21.309
49.12000 14.057
49.28000 20.417
49.44000 21.162
49.60000 17.247
49.76000 20.253
49.92000 14.268
50.08000 14.126
50.24000 19.314
50.40000 21.302
50.56000 23.544
50.72000 14.019
50.88000 16.137
51.04000 12.161
51.20000 24.279
51.36000 19.423
51.52000 17.386
51.68000 10.020
51.84000 19.308
52.00000 22.017
52.16000 15.465
52.32000 8.991
52.48000 13.173
52.64000 13.159
52.80000 23.336
52.96000 7.138
53.12000 17.283
53.28000 18.255
53.44000 19.360
53.60000 10.072
53.76000 15.193
53.92000 14.124
54.08000 14.191
54.24000 12.225
54.40000 13.179
54.56000 16.164
54.72000 10.197
54.88000 12.311
55.04000 11.159
55.20000 10.124
55.36000 16.239
55.52000 9.166
55.68000 13.066
55.84000 13.185
56.00000 10.087
56.16000 7.062
56.32000 10.234
56.48000 10.195
56.64000 8.156
56.80000 17.301
56.96000 16.084
57.12000 13.178
57.28000 14.329
57.44000 18.362
57.60000 7.932
57.76000 11.286
57.92000 13.216
58.08000 10.038
58.24000 12.362
58.40000 13.096
58.56000 6.059
58.72000 11.050
58.88000 9.010
59.04000 7.996
59.20000 6.121
59.36000 14.164
59.52000 17.254
59.68000 10.145
59.84000 10.216
60.00000 10.089
60.16000 12.069
60.32000 15.277
60.48000 11.035
60.64000 10.229
60.80000 13.127
60.96000 9.132
61.12000 9.209
61.28000 10.071
61.44000 10.104
61.60000 8.189
61.76000 8.162
61.92000 6.106
62.08000 4.991
62.24000 8.030
62.40000 13.198
62.56000 11.105
62.72000 13.097
62.88000 8.074
63.04000 13.156
63.20000 4.117
63.36000 12.382
63.52000 11.180
63.68000 3.084
63.84000 8.114
64.00000 6.018
64.16000 9.088
64.32000 9.136
64.48000 7.981
64.64000 9.124
64.80000 5.046
64.96000 3.030
65.00000 9.129

File: 01092025_BTO_omega_0_5_001_09_22-524_10-847.xy
20.00000 22.096
20.16000 18.220
20.32000 30.388
20.48000 22.114
20.64000 20.286
20.80000 17.156
20.96000 28.508
21.12000 18.292
21.28000 26.419
21.44000 22.427
21.60000 14.078
21.76000 31.292
21.92000 17.201
22.08000 33.276
22.24000 22.211
22.40000 30.611
22.56000 22.393
22.72000 26.700
22.88000 29.408
23.04000 26.440
23.20000 21.106
23.36000 18.261
23.52000 24.152
23.68000 39.585
23.84000 31.459
24.00000 40.589
24.16000 29.434
24.32000 42.539
24.48000 46.468
24.64000 47.486
24.80000 47.539
24.96000 32.398
25.12000 45.694
25.28000 39.692
25.44000 40.428
25.60000 48.730
25.76000 36.606
25.92000 49.552
26.08000 50.586
26.24000 42.394
26.40000 51.495
26.56000 58.978
26.72000 47.493
26.88000 52.801
27.04000 62.104
27.20000 48.871
27.36000 55.703
27.52000 66.872
27.68000 69.247
27.84000 59.137
28.00000 62.117
28.16000 49.625
28.32000 58.866
28.48000 62.137
28.64000 71.141
28.80000 53.732
28.96000 54.574
29.12000 49.608
29.28000 55.339
29.44000 44.688
29.60000 54.735
29.76000 40.691
29.92000 50.622
30.08000 34.420
30.24000 53.552
30.40000 39.834
30.56000 30.442
30.72000 37.646
30.88000 37.638
31.04000 33.450
31.20000 36.594
31.36000 32.428
31.52000 41.647
31.68000 36.286
31.84000 26.291
32.00000 27.420
32.16000 30.390
32.32000 22.233
32.48000 28.325
32.64000 28.159
32.80000 29.610
32.96000 28.153
33.12000 27.252
33.28000 20.102
33.44000 26.574
33.60000 17.192
33.76000 22.490
33.92000 16.205
34.08000 16.113
34.24000 18.280
34.40000 11.108
34.56000 18.283
34.72000 11.035
34.88000 24.210
35.04000 14.195
35.20000 21.974
35.36000 20.324
35.52000 17.324
35.68000 22.446
35.84000 20.312
36.00000 10.107
36.16000 22.802
36.32000 22.294
36.48000 19.193
36.64000 28.287
36.80000 11.250
36.96000 16.216
37.12000 21.347
37.28000 14.080
37.44000 21.445
37.60000 23.247
37.76000 22.492
37.92000 25.329
38.08000 18.207
38.24000 11.130
38.40000 13.134
38.56000 14.079
38.72000 18.296
38.88000 25.244
39.04000 19.180
39.20000 19.167
39.36000 16.103
39.52000 24.200
39.68000 21.246
39.84000 26.247
40.00000 23.464
40.16000 21.319
40.32000 24.335
40.48000 27.367
40.64000 19.110
40.80000 19.202
40.96000 25.437
41.12000 19.366
41.28000 23.102
41.44000 21.324
41.60000 18.179
41.76000 24.255
41.92000 22.027
42.08000 19.298
42.24000 12.078
42.40000 26.366
42.56000 23.449
42.72000 22.280
42.88000 18.255
43.04000 22.168
43.20000 27.412
43.36000 22.323
43.52000 20.141
43.68000 22.451
43.84000 25.529
44.00000 20.400
44.16000 18.130
44.32000 22.236
44.48000 22.222
44.64000 15.069
44.80000 21.335
44.96000 20.246
45.12000 15.049
45.28000 21.262
45.44000 23.327
45.60000 15.340
45.76000 16.199
45.92000 20.138
46.08000 23.395
46.24000 14.214
46.40000 30.530
46.56000 17.269
46.72000 24.153
46.88000 24.320
47.04000 23.530
47.20000 17.167
47.36000 25.160
47.52000 21.273
47.68000 15.094
47.84000 11.188
48.00000 21.160
48.16000 28.296
48.32000 17.038
48.48000 20.218
48.64000 22.348
48.80000 17.328
48.96000 10.986
49.12000 25.285
49.28000 23.313
49.44000 19.411
49.60000 30.336
49.76000 15.164
49.92000 23.165
50.08000 19.346
50.24000 15.271
50.40000 13.181
50.56000 16.277
50.72000 16.407
50.88000 13.177
51.04000 17.102
51.20000 18.270
51.36000 15.216
51.52000 11.205
51.68000 12.984
51.84000 16.098
52.00000 18.131
52.16000 17.239
52.32000 21.198
52.48000 14.245
52.64000 8.974
52.80000 11.225
52.96000 14.280
53.12000 14.086
53.28000 19.200
53.44000 15.198
53.60000 16.196
53.76000 13.078
53.92000 13.174
54.08000 14.346
54.24000 7.191
54.40000 12.176
54.56000 13.261
54.72000 18.090
54.88000 7.283
55.04000 16.349
55.20000 8.111
55.36000 17.355
55.52000 14.159
55.68000 13.173
55.84000 14.146
56.00000 10.191
56.16000 11.346
56.32000 12.042
56.48000 6.168
56.64000 8.120
56.80000 10.192
56.96000 9.028
57.12000 10.113
57.28000 19.171
57.44000 11.162
57.60000 15.135
57.76000 15.109
57.92000 21.301
58.08000 7.147
58.24000 11.319
58.40000 14.104
58.56000 8.097
58.72000 10.210
58.88000 4.021
59.04000 6.118
59.20000 13.211
59.36000 12.248
59.52000 14.147
59.68000 9.081
59.84000 8.129
60.00000 10.085
60.16000 7.114
60.32000 16.113
60.48000 8.169
60.64000 15.245
60.80000 11.140
60.96000 12.033
61.12000 11.190
61.28000 7.111
61.44000 11.078
61.60000 7.235
61.76000 7.184
61.92000 8.082
62.08000 2.005
62.24000 12.085
62.40000 11.139
62.56000 8.146
62.72000 6.043
62.88000 10.073
63.04000 7.136
63.20000 13.082
63.36000 5.077
63.52000 7.156
63.68000 8.071
63.84000 10.172
64.00000 10.100
64.16000 11.160
64.32000 6.199
64.48000 9.182
64.64000 8.176
64.80000 5.005
64.96000 10.232
65.00000 9.165

File: 01092025_BTO_omega_0_5_001_11_2-782_12-187.xy
20.00000 20.260
20.16000 14.123
20.32000 17.163
20.48000 14.198
20.64000 27.359
20.80000 22.205
20.96000 19.202
21.12000 21.491
21.28000 25.365
21.44000 21.263
21.60000 24.404
21.76000 26.238
21.92000 24.494
22.08000 23.396
22.24000 16.158
22.40000 17.138
22.56000 21.274
22.72000 26.311
22.88000 24.280
23.04000 23.301
23.20000 29.608
23.36000 26.346
23.52000 28.280
23.68000 26.340
23.84000 31.414
24.00000 34.583
24.16000 22.398
24.32000 30.431
24.48000 25.111
24.64000 55.644
24.80000 32.502
24.96000 51.990
25.12000 38.545
25.28000 36.553
25.44000 33.496
25.60000 56.539
25.76000 50.892
25.92000 49.564
26.08000 47.644
26.24000 48.769
26.40000 54.701
26.56000 39.716
26.72000 60.160
26.88000 56.647
27.04000 58.987
27.20000 63.724
27.36000 51.609
27.52000 71.916
27.68000 66.143
27.84000 63.911
28.00000 66.753
28.16000 64.937
28.32000 62.998
28.48000 55.269
28.64000 66.728
28.80000 56.074
28.96000 45.639
29.12000 40.550
29.28000 45.853
29.44000 50.382
29.60000 47.386
29.76000 48.838
29.92000 41.365
30.08000 47.760
30.24000 33.953
30.40000 30.424
30.56000 32.633
30.72000 35.664
30.88000 33.590
31.04000 36.787
31.20000 22.330
31.36000 40.624
31.52000 37.793
31.68000 35.670
31.84000 33.745
32.00000 27.409
32.16000 24.378
32.32000 24.367
32.48000 29.208
32.64000 32.521
32.80000 24.374
32.96000 26.229
33.12000 25.357
33.28000 18.194
33.44000 33.267
33.60000 16.307
33.76000 20.307
33.92000 15.256
34.08000 22.254
34.24000 19.233
34.40000 21.224
34.56000 17.054
34.72000 11.110
34.88000 13.205
35.04000 12.983
35.20000 15.136
35.36000 11.311
35.52000 16.068
35.68000 15.264
35.84000 22.181
36.00000 20.288
36.16000 18.281
36.32000 17.252
36.48000 24.292
36.64000 14.133
36.80000 13.209
36.96000 15.105
37.12000 18.253
37.28000 22.148
37.44000 23.396
37.60000 19.390
37.76000 16.149
37.92000 20.401
38.08000 17.102
38.24000 15.145
38.40000 22.299
38.56000 13.124
38.72000 17.148
38.88000 23.382
39.04000 25.319
39.20000 27.523
39.36000 21.251
39.52000 29.249
39.68000 21.090
39.84000 21.279
40.00000 19.363
40.16000 26.996
40.32000 19.393
40.48000 25.081
40.64000 24.578
40.80000 19.010
40.96000 19.117
41.12000 24.271
41.28000 21.289
41.44000 22.218
41.60000 18.260
41.76000 17.288
41.92000 25.415
42.08000 23.619
42.24000 20.369
42.40000 21.143
42.56000 17.459
42.72000 21.294
42.88000 16.210
43.04000 26.193
43.20000 17.277
43.36000 26.538
43.52000 29.333
43.68000 21.197
43.84000 13.049
44.00000 16.209
44.16000 14.099
44.32000 26.311
44.48000 15.211
44.64000 18.234
44.80000 19.249
44.96000 19.401
45.12000 23.218
45.28000 25.339
45.44000 17.223
45.60000 18.372
45.76000 25.453
45.92000 22.253
46.08000 21.227
46.24000 21.287
46.40000 21.171
46.56000 21.181
46.72000 16.301
46.88000 30.439
47.04000 25.237
47.20000 23.300
47.36000 29.521
47.52000 20.362
47.68000 23.098
47.84000 22.258
48.00000 16.309
48.16000 18.244
48.32000 18.288
48.48000 19.168
48.64000 15.203
48.80000 14.228
48.96000 12.225
49.12000 17.258
49.28000 22.377
49.44000 15.245
49.60000 15.223
49.76000 16.341
49.92000 14.137
50.08000 15.105
50.24000 12.107
50.40000 16.136
50.56000 14.164
50.72000 15.178
50.88000 16.352
51.04000 17.248
51.20000 15.084
51.36000 19.351
51.52000 17.263
51.68000 17.187
51.84000 17.128
52.00000 19.093
52.16000 15.124
52.32000 12.132
52.48000 15.417
52.64000 17.218
52.80000 12.243
52.96000 13.173
53.12000 20.225
53.28000 13.289
53.44000 6.249
53.60000 18.267
53.76000 11.214
53.92000 13.286
54.08000 13.149
54.24000 16.217
54.40000 20.303
54.56000 17.254
54.72000 13.184
54.88000 9.089
55.04000 12.029
55.20000 15.274
55.36000 9.109
55.52000 5.100
55.68000 15.170
55.84000 11.070
56.00000 20.312
56.16000 7.981
56.32000 11.214
56.48000 3.941
56.64000 6.028
56.80000 7.017
56.96000 18.348
57.12000 4.015
57.28000 16.155
57.44000 11.026
57.60000 14.205
57.76000 18.124
57.92000 5.075
58.08000 13.172
58.24000 7.193
58.40000 13.138
58.56000 15.195
58.72000 10.214
58.88000 10.060
59.04000 16.114
59.20000 14.313
59.36000 10.005
59.52000 11.228
59.68000 10.015
59.84000 10.074
60.00000 8.057
60.16000 5.103
60.32000 8.069
60.48000 18.168
60.64000 10.188
60.80000 10.037
60.96000 9.292
61.12000 1.974
61.28000 6.048
61.44000 16.260
61.60000 11.124
61.76000 6.963
61.92000 7.170
62.08000 5.086
62.24000 9.146
62.40000 19.243
62.56000 13.272
62.72000 13.254
62.88000 13.255
63.04000 11.192
63.20000 8.259
63.36000 6.057
63.52000 7.122
63.68000 7.000
63.84000 7.130
64.00000 8.152
64.16000 10.179
64.32000 10.127
64.48000 13.180
64.64000 7.143
64.80000 7.034
64.96000 6.097
65.00000 5.023

File: 01092025_BTO_omega_0_5_001_15_-15-587_19-546.xy
20.00000 21.192
20.16000 27.073
20.32000 15.350
20.48000 25.374
20.64000 10.159
20.80000 27.461
20.96000 23.195
21.12000 18.188
21.28000 19.104
21.44000 22.323
21.60000 31.894
21.76000 18.153
21.92000 25.299
22.08000 19.366
22.24000 19.237
22.40000 24.344
22.56000 29.412
22.72000 32.278
22.88000 33.700
23.04000 14.176
23.20000 33.451
23.36000 22.271
23.52000 35.301
23.68000 27.377
23.84000 33.437
24.00000 31.580
24.16000 26.427
24.32000 27.381
24.48000 30.337
24.64000 37.608
24.80000 41.574
24.96000 45.713
25.12000 45.515
25.28000 42.552
25.44000 33.490
25.60000 39.493
25.76000 45.421
25.92000 46.480
26.08000 46.819
26.24000 42.731
26.40000 57.754
26.56000 54.691
26.72000 49.645
26.88000 56.729
27.04000 49.866
27.20000 57.680
27.36000 62.933
27.52000 63.543
27.68000 55.779
27.84000 63.959
28.00000 64.299
28.16000 48.650
28.32000 46.727
28.48000 48.734
28.64000 44.561
28.80000 58.720
28.96000 55.991
29.12000 42.572
29.28000 53.597
29.44000 43.302
29.60000 49.574
29.76000 46.295
29.92000 40.406
30.08000 44.475
30.24000 53.971
30.40000 41.502
30.56000 44.644
30.72000 45.684
30.88000 34.621
31.04000 37.365
31.20000 28.377
31.36000 27.431
31.52000 29.629
31.68000 28.309
31.84000 21.498
32.00000 29.564
32.16000 22.213
32.32000 22.257
32.48000 35.539
32.64000 24.115
32.80000 18.224
32.96000 24.953
33.12000 17.227
33.28000 21.359
33.44000 20.239
33.60000 22.167
33.76000 14.103
33.92000 19.335
34.08000 14.145
34.24000 17.266
34.40000 19.227
34.56000 21.408
34.72000 17.254
34.88000 18.107
35.04000 15.114
35.20000 20.278
35.36000 20.256
35.52000 16.094
35.68000 10.054
35.84000 23.247
36.00000 21.189
36.16000 14.163
36.32000 25.341
36.48000 19.302
36.64000 19.349
36.80000 16.180
36.96000 19.032
37.12000 15.111
37.28000 20.307
37.44000 13.976
37.60000 22.427
37.76000 14.116
37.92000 25.508
38.08000 24.278
38.24000 25.224
38.40000 15.176
38.56000 17.152
38.72000 26.207
38.88000 22.183
39.04000 31.359
39.20000 23.236
39.36000 34.561
39.52000 27.430
39.68000 18.111
39.84000 29.385
40.00000 19.200
40.16000 24.415
40.32000 20.226
40.48000 22.003
40.64000 18.354
40.80000 28.656
40.96000 21.494
41.12000 16.534
41.28000 27.488
41.44000 24.262
41.60000 21.524
41.76000 27.348
41.92000 24.427
42.08000 18.289
42.24000 17.211
42.40000 20.377
42.56000 19.182
42.72000 23.254
42.88000 16.194
43.04000 22.354
43.20000 27.382
43.36000 15.141
43.52000 17.300
43.68000 23.289
43.84000 25.311
44.00000 26.342
44.16000 15.207
44.32000 27.457
44.48000 19.163
44.64000 15.062
44.80000 27.411
44.96000 21.242
45.12000 24.234
45.28000 35.444
45.44000 24.237
45.60000 20.241
45.76000 24.761
45.92000 24.377
46.08000 21.047
46.24000 18.221
46.40000 25.249
46.56000 21.384
46.72000 22.045
46.88000 26.337
47.04000 16.177
47.20000 22.519
47.36000 18.144
47.52000 23.419
47.68000 23.368
47.84000 19.127
48.00000 20.119
48.16000 21.404
48.32000 21.268
48.48000 21.269
48.64000 13.312
48.80000 18.236
48.96000 25.318
49.12000 20.414
49.28000 20.133
49.44000 19.090
49.60000 16.196
49.76000 16.210
49.92000 13.056
50.08000 15.160
50.24000 21.526
50.40000 21.124
50.56000 13.409
50.72000 13.261
50.88000 14.222
51.04000 19.083
51.20000 8.064
51.36000 25.259
51.52000 18.994
51.68000 9.989
51.84000 16.184
52.00000 15.246
52.16000 14.261
52.32000 18.119
52.48000 18.205
52.64000 18.403
52.80000 18.255
52.96000 10.011
53.12000 10.266
53.28000 9.167
53.44000 17.220
53.60000 20.388
53.76000 7.149
53.92000 15.154
54.08000 17.246
54.24000 10.140
54.40000 15.292
54.56000 21.025
54.72000 7.154
54.88000 20.184
55.04000 11.092
55.20000 15.157
55.36000 14.235
55.52000 11.139
55.68000 16.102
55.84000 18.265
56.00000 8.935
56.16000 12.352
56.32000 10.173
56.48000 14.135
56.64000 11.089
56.80000 11.145
56.96000 10.110
57.12000 17.453
57.28000 10.137
57.44000 4.082
57.60000 10.090
57.76000 7.981
57.92000 14.147
58.08000 17.277
58.24000 12.130
58.40000 15.228
58.56000 12.058
58.72000 16.147
58.88000 12.130
59.04000 12.170
59.20000 17.169
59.36000 7.094
59.52000 6.981
59.68000 16.138
59.84000 13.271
60.00000 7.043
60.16000 7.189
60.32000 12.257
60.48000 10.187
60.64000 7.143
60.80000 8.161
60.96000 9.162
61.12000 6.167
61.28000 8.091
61.44000 8.206
61.60000 15.358
61.76000 10.162
61.92000 3.091
62.08000 11.082
62.24000 6.093
62.40000 12.188
62.56000 3.990
62.72000 5.104
62.88000 5.049
63.04000 4.098
63.20000 10.021
63.36000 6.178
63.52000 15.150
63.68000 11.133
63.84000 8.033
64.00000 8.030
64.16000 8.045
64.32000 13.204
64.48000 10.128
64.64000 9.119
64.80000 11.193
64.96000 15.099
65.00000 8.065

File: 01092025_BTO_omega_0_5_001_19_5-563_24-373.xy
20.00000 21.379
20.16000 14.134
20.32000 22.146
20.48000 21.221
20.64000 25.321
20.80000 10.001
20.96000 18.269
21.12000 31.370
21.28000 25.359
21.44000 19.252
21.60000 15.033
21.76000 23.354
21.92000 27.510
22.08000 19.300
22.24000 19.134
22.40000 18.273
22.56000 19.211
22.72000 23.311
22.88000 24.226
23.04000 22.314
23.20000 24.453
23.36000 25.387
23.52000 26.179
23.68000 26.369
23.84000 27.384
24.00000 28.416
24.16000 29.094
24.32000 37.411
24.48000 40.271
24.64000 37.470
24.80000 37.694
24.96000 41.441
25.12000 48.859
25.28000 46.749
25.44000 39.321
25.60000 44.577
25.76000 40.510
25.92000 62.607
26.08000 51.765
26.24000 62.116
26.40000 53.432
26.56000 48.812
26.72000 52.493
26.88000 50.771
27.04000 59.981
27.20000 54.575
27.36000 71.074
27.52000 63.759
27.68000 52.618
27.84000 57.649
28.00000 74.773
28.16000 57.727
28.32000 43.612
28.48000 57.577
28.64000 54.670
28.80000 77.039
28.96000 65.672
29.12000 52.791
29.28000 51.759
29.44000 58.796
29.60000 51.708
29.76000 47.646
29.92000 35.360
30.08000 37.866
30.24000 50.573
30.40000 40.382
30.56000 35.386
30.72000 43.491
30.88000 40.593
31.04000 44.512
31.20000 35.337
31.36000 26.563
31.52000 33.459
31.68000 33.337
31.84000 22.593
32.00000 35.339
32.16000 41.474
32.32000 31.362
32.48000 27.291
32.64000 22.277
32.80000 30.402
32.96000 17.261
33.12000 15.145
33.28000 15.003
33.44000 27.294
33.60000 9.176
33.76000 15.200
33.92000 23.275
34.08000 21.156
34.24000 28.753
34.40000 16.211
34.56000 12.105
34.72000 14.065
34.88000 17.100
35.04000 20.198
35.20000 24.711
35.36000 16.173
35.52000 16.205
35.68000 18.412
35.84000 12.176
36.00000 19.185
36.16000 13.315
36.32000 16.176
36.48000 24.433
36.64000 12.248
36.80000 19.211
36.96000 17.263
37.12000 20.333
37.28000 27.247
37.44000 22.275
37.60000 15.251
37.76000 19.215
37.92000 24.314
38.08000 19.113
38.24000 26.398
38.40000 16.186
38.56000 19.259
38.72000 30.240
38.88000 28.161
39.04000 19.206
39.20000 30.420
39.36000 15.268
39.52000 23.150
39.68000 21.085
39.84000 23.403
40.00000 18.104
40.16000 24.309
40.32000 20.164
40.48000 25.362
40.64000 23.326
40.80000 21.293
40.96000 24.286
41.12000 28.382
41.28000 23.240
41.44000 25.088
41.60000 15.179
41.76000 15.235
41.92000 23.486
42.08000 23.102
42.24000 24.336
42.40000 23.341
42.56000 20.149
42.72000 22.480
42.88000 16.143
43.04000 31.423
43.20000 17.046
43.36000 29.437
43.52000 19.232
43.68000 22.220
43.84000 15.183
44.00000 20.306
44.16000 28.478
44.32000 18.260
44.48000 27.293
44.64000 20.412
44.80000 19.218
44.96000 22.495
45.12000 24.327
45.28000 22.278
45.44000 24.357
45.60000 27.292
45.76000 24.203
45.92000 24.430
46.08000 17.193
46.24000 25.330
46.40000 20.167
46.56000 22.327
46.72000 15.263
46.88000 18.063
47.04000 20.245
47.20000 27.358
47.36000 31.665
47.52000 19.401
47.68000 18.222
47.84000 23.265
48.00000 19.281
48.16000 17.312
48.32000 18.128
48.48000 21.259
48.64000 24.254
48.80000 22.280
48.96000 17.317
49.12000 17.343
49.28000 12.994
49.44000 16.207
49.60000 22.364
49.76000 17.042
49.92000 14.251
50.08000 24.388
50.24000 17.121
50.40000 18.195
50.56000 15.204
50.72000 23.373
50.88000 15.147
51.04000 15.074
51.20000 15.312
51.36000 24.276
51.52000 19.252
51.68000 16.191
51.84000 28.383
52.00000 13.205
52.16000 12.178
52.32000 10.172
52.48000 16.180
52.64000 12.173
52.80000 18.163
52.96000 27.419
53.12000 9.120
53.28000 13.134
53.44000 15.370
53.60000 12.155
53.76000 11.049
53.92000 12.253
54.08000 18.513
54.24000 13.148
54.40000 14.259
54.56000 11.016
54.72000 11.181
54.88000 11.190
55.04000 14.213
55.20000 16.080
55.36000 16.236
55.52000 21.570
55.68000 5.115
55.84000 14.131
56.00000 15.216
56.16000 8.960
56.32000 26.284
56.48000 19.148
56.64000 14.126
56.80000 10.143
56.96000 17.218
57.12000 6.174
57.28000 14.320
57.44000 18.214
57.60000 15.222
57.76000 14.159
57.92000 16.143
58.08000 11.101
58.24000 16.027
58.40000 10.195
58.56000 11.964
58.72000 9.056
58.88000 13.046
59.04000 13.057
59.20000 8.100
59.36000 11.131
59.52000 10.137
59.68000 11.196
59.84000 13.076
60.00000 17.239
60.16000 13.122
60.32000 11.254
60.48000 14.112
60.64000 8.075
60.80000 6.012
60.96000 13.065
61.12000 7.152
61.28000 15.027
61.44000 14.175
61.60000 17.191
61.76000 11.150
61.92000 7.005
62.08000 4.053
62.24000 6.100
62.40000 12.154
62.56000 10.199
62.72000 11.065
62.88000 8.017
63.04000 9.064
63.20000 9.109
63.36000 11.044
63.52000 7.070
63.68000 4.115
63.84000 5.031
64.00000 9.133
64.16000 13.082
64.32000 12.166
64.48000 5.113
64.64000 2.000
64.80000 6.112
64.96000 5.127
65.00000 3.988