Folder: Master-Thesis/XRD/XRD/30-09-2025 Dep 1/XY Data (part 6)

File: BTO_Mapping_Theta2Theta_30-09-2025_001_47_-2-091_-19-890.xy
20.00000 571.137
20.17000 571.417
20.34000 581.028
20.51000 573.394
20.68000 584.702
20.85000 550.237
21.02000 547.803
21.19000 558.662
21.36000 550.986
21.53000 577.735
21.70000 596.665
21.87000 803.853
22.04000 936.526
22.21000 689.489
22.38000 555.503
22.55000 556.241
22.72000 546.870
22.89000 535.187
23.06000 518.411
23.23000 531.913
23.40000 496.562
23.57000 513.174
23.74000 521.452
23.91000 505.030
24.08000 513.734
24.25000 483.411
24.42000 477.594
24.59000 510.731
24.76000 503.851
24.93000 492.278
25.10000 487.860
25.27000 494.390
25.44000 480.983
25.61000 478.990
25.78000 486.722
25.95000 487.565
26.12000 486.426
26.29000 466.309
26.46000 470.344
26.63000 441.939
26.80000 448.915
26.97000 455.095
27.14000 469.094
27.31000 448.283
27.48000 431.642
27.65000 444.324
27.82000 457.078
27.99000 445.185
28.16000 435.791
28.33000 443.245
28.50000 445.501
28.67000 439.616
28.84000 418.001
29.01000 430.763
29.18000 428.472
29.35000 431.385
29.52000 426.309
29.69000 423.751
29.86000 453.630
30.03000 464.120
30.20000 453.257
30.37000 422.222
30.54000 438.612
30.71000 439.861
30.88000 505.703
31.05000 888.194
31.22000 2858.288
31.39000 3797.843
31.56000 1273.714
31.73000 555.557
31.90000 458.316
32.07000 418.443
32.24000 410.173
32.41000 395.824
32.58000 398.159
32.75000 390.899
32.92000 449.206
33.09000 473.033
33.26000 355.420
33.43000 369.528
33.60000 355.624
33.77000 339.006
33.94000 345.872
34.11000 341.242
34.28000 330.874
34.45000 345.101
34.62000 332.831
34.79000 333.320
34.96000 317.690
35.13000 333.713
35.30000 327.564
35.47000 309.841
35.64000 330.793
35.81000 308.092
35.98000 304.276
36.15000 305.616
36.32000 300.894
36.49000 302.710
36.66000 322.602
36.83000 327.031
37.00000 310.239
37.17000 310.274
37.34000 298.145
37.51000 299.915
37.68000 302.594
37.85000 308.256
38.02000 301.940
38.19000 309.742
38.36000 357.399
38.53000 489.863
38.70000 599.674
38.87000 402.050
39.04000 296.453
39.21000 285.211
39.38000 287.890
39.55000 271.381
39.72000 274.311
39.89000 279.631
40.06000 273.195
40.23000 264.085
40.40000 271.706
40.57000 247.921
40.74000 254.379
40.91000 254.915
41.08000 262.530
41.25000 259.441
41.42000 256.565
41.59000 240.164
41.76000 234.354
41.93000 255.142
42.10000 249.634
42.27000 240.634
42.44000 236.329
42.61000 234.193
42.78000 227.729
42.95000 236.638
43.12000 229.206
43.29000 226.855
43.46000 223.772
43.63000 232.837
43.80000 233.523
43.97000 230.131
44.14000 228.365
44.31000 236.131
44.48000 238.434
44.65000 280.532
44.82000 446.060
44.99000 589.541
45.16000 451.596
45.33000 288.191
45.50000 230.133
45.67000 227.656
45.84000 216.603
46.01000 217.397
46.18000 211.562
46.35000 209.624
46.52000 202.372
46.69000 200.609
46.86000 208.607
47.03000 197.378
47.20000 198.847
47.37000 204.087
47.54000 194.350
47.71000 192.532
47.88000 191.481
48.05000 191.509
48.22000 187.696
48.39000 193.177
48.56000 190.762
48.73000 187.320
48.90000 180.292
49.07000 181.659
49.24000 187.923
49.41000 187.801
49.58000 189.339
49.75000 177.849
49.92000 184.224
50.09000 182.709
50.26000 199.239
50.43000 226.120
50.60000 305.558
50.77000 269.815
50.94000 222.623
51.11000 181.601
51.28000 177.449
51.45000 175.727
51.62000 168.663
51.79000 156.854
51.96000 167.279
52.13000 166.146
52.30000 171.571
52.47000 159.732
52.64000 168.810
52.81000 161.378
52.98000 170.221
53.15000 154.881
53.32000 165.758
53.49000 167.068
53.66000 153.202
53.83000 157.039
54.00000 150.186
54.17000 174.565
54.34000 158.458
54.51000 154.699
54.68000 155.462
54.85000 161.882
55.02000 168.489
55.19000 163.450
55.36000 187.715
55.53000 259.225
55.70000 469.973
55.87000 643.864
56.04000 445.331
56.21000 234.706
56.38000 178.110
56.55000 160.375
56.72000 159.029
56.89000 146.719
57.06000 156.945
57.23000 155.065
57.40000 162.255
57.57000 150.468
57.74000 152.205
57.91000 133.583
58.08000 151.166
58.25000 153.269
58.42000 142.293
58.59000 141.996
58.76000 135.420
58.93000 135.209
59.10000 147.648
59.27000 128.782
59.44000 120.311
59.61000 144.276
59.78000 134.665
59.95000 134.984
60.12000 146.719
60.29000 127.089
60.46000 128.155
60.63000 143.503
60.80000 144.583
60.97000 132.505
61.14000 126.988
61.31000 141.931
61.48000 151.923
61.65000 326.853
61.82000 227.873
61.99000 138.543
62.16000 148.228
62.33000 144.582
62.50000 140.391
62.67000 153.530
62.84000 142.000
63.01000 146.987
63.18000 141.337
63.35000 158.686
63.52000 150.336
63.69000 158.469
63.86000 145.991
64.03000 142.353
64.20000 163.717
64.37000 167.513
64.54000 180.983
64.71000 184.967
64.88000 193.629
65.05000 221.660
65.22000 301.434
65.39000 418.078
65.56000 422.054
65.73000 742.162
65.90000 1356.283
66.07000 429.801
66.24000 322.407
66.41000 513.381
66.58000 389.102
66.75000 346.645
66.92000 352.408
67.09000 392.718
67.26000 410.334
67.43000 432.889
67.60000 463.280
67.77000 521.350
67.94000 554.088
68.11000 627.199
68.28000 685.392
68.45000 812.710
68.62000 1175.769
68.79000 2303.697
68.96000 17018.109
69.13000 80728.297
69.30000 48863.824
69.47000 12007.706
69.64000 1525.330
69.81000 996.990
69.98000 771.797
70.00000 775.319

File: BTO_Mapping_Theta2Theta_30-09-2025_001_49_-4-181_-39-781.xy
20.00000 563.057
20.17000 575.205
20.34000 593.432
20.51000 592.405
20.68000 574.038
20.85000 563.604
21.02000 566.637
21.19000 544.850
21.36000 553.147
21.53000 613.368
21.70000 702.163
21.87000 1026.511
22.04000 1028.654
22.21000 681.869
22.38000 581.010
22.55000 560.961
22.72000 529.735
22.89000 535.327
23.06000 539.774
23.23000 540.115
23.40000 523.523
23.57000 531.224
23.74000 511.814
23.91000 509.242
24.08000 526.953
24.25000 510.049
24.42000 498.842
24.59000 492.839
24.76000 495.003
24.93000 500.121
25.10000 505.021
25.27000 505.901
25.44000 479.198
25.61000 496.182
25.78000 483.741
25.95000 498.325
26.12000 483.980
26.29000 457.105
26.46000 479.910
26.63000 467.423
26.80000 471.085
26.97000 468.064
27.14000 453.072
27.31000 465.184
27.48000 476.408
27.65000 463.963
27.82000 459.821
27.99000 472.357
28.16000 468.061
28.33000 459.756
28.50000 446.424
28.67000 449.913
28.84000 456.814
29.01000 439.484
29.18000 443.909
29.35000 443.215
29.52000 440.101
29.69000 448.428
29.86000 475.003
30.03000 469.803
30.20000 457.377
30.37000 455.265
30.54000 480.946
30.71000 504.342
30.88000 641.966
31.05000 1750.535
31.22000 4006.574
31.39000 2582.785
31.56000 807.299
31.73000 524.160
31.90000 461.560
32.07000 434.918
32.24000 436.095
32.41000 423.007
32.58000 390.899
32.75000 392.942
32.92000 464.793
33.09000 491.999
33.26000 383.002
33.43000 366.274
33.60000 351.600
33.77000 346.129
33.94000 348.186
34.11000 360.282
34.28000 352.119
34.45000 357.572
34.62000 331.306
34.79000 329.112
34.96000 326.204
35.13000 310.968
35.30000 320.571
35.47000 314.315
35.64000 337.107
35.81000 322.044
35.98000 314.011
36.15000 316.261
36.32000 316.359
36.49000 301.960
36.66000 310.274
36.83000 317.038
37.00000 325.471
37.17000 300.056
37.34000 319.042
37.51000 314.620
37.68000 298.401
37.85000 304.035
38.02000 292.040
38.19000 327.617
38.36000 398.326
38.53000 477.801
38.70000 430.522
38.87000 335.306
39.04000 296.686
39.21000 283.567
39.38000 279.918
39.55000 265.910
39.72000 271.314
39.89000 273.229
40.06000 273.127
40.23000 263.508
40.40000 250.107
40.57000 237.583
40.74000 249.962
40.91000 262.992
41.08000 265.562
41.25000 255.385
41.42000 242.958
41.59000 253.364
41.76000 267.311
41.93000 254.403
42.10000 249.112
42.27000 240.963
42.44000 240.215
42.61000 239.607
42.78000 252.574
42.95000 252.391
43.12000 249.183
43.29000 245.166
43.46000 241.268
43.63000 235.373
43.80000 239.291
43.97000 236.313
44.14000 245.529
44.31000 255.733
44.48000 307.294
44.65000 505.514
44.82000 724.670
44.99000 623.751
45.16000 432.145
45.33000 319.985
45.50000 243.377
45.67000 238.214
45.84000 224.775
46.01000 219.243
46.18000 212.860
46.35000 217.862
46.52000 209.704
46.69000 203.710
46.86000 209.711
47.03000 216.605
47.20000 203.336
47.37000 199.470
47.54000 197.143
47.71000 209.034
47.88000 189.306
48.05000 187.320
48.22000 212.470
48.39000 199.455
48.56000 190.163
48.73000 202.294
48.90000 188.031
49.07000 189.866
49.24000 177.626
49.41000 190.206
49.58000 191.008
49.75000 191.303
49.92000 194.753
50.09000 191.089
50.26000 240.204
50.43000 269.411
50.60000 276.412
50.77000 238.700
50.94000 207.642
51.11000 186.952
51.28000 180.434
51.45000 177.008
51.62000 173.009
51.79000 179.492
51.96000 171.845
52.13000 163.646
52.30000 176.620
52.47000 171.994
52.64000 159.227
52.81000 167.988
52.98000 168.701
53.15000 167.240
53.32000 163.137
53.49000 163.033
53.66000 158.864
53.83000 163.617
54.00000 160.995
54.17000 163.304
54.34000 166.765
54.51000 156.981
54.68000 158.906
54.85000 174.344
55.02000 170.243
55.19000 184.842
55.36000 245.516
55.53000 404.202
55.70000 553.865
55.87000 421.837
56.04000 279.898
56.21000 188.886
56.38000 182.237
56.55000 159.075
56.72000 162.793
56.89000 162.430
57.06000 151.494
57.23000 154.643
57.40000 152.809
57.57000 144.664
57.74000 140.814
57.91000 140.282
58.08000 144.970
58.25000 137.807
58.42000 137.547
58.59000 146.613
58.76000 140.848
58.93000 138.375
59.10000 138.510
59.27000 128.111
59.44000 138.596
59.61000 140.936
59.78000 140.985
59.95000 142.693
60.12000 137.875
60.29000 139.094
60.46000 141.937
60.63000 139.193
60.80000 143.739
60.97000 136.325
61.14000 135.645
61.31000 151.272
61.48000 152.290
61.65000 346.258
61.82000 251.281
61.99000 159.701
62.16000 138.768
62.33000 143.373
62.50000 141.287
62.67000 143.330
62.84000 132.858
63.01000 153.971
63.18000 155.124
63.35000 154.880
63.52000 152.754
63.69000 152.063
63.86000 151.705
64.03000 154.290
64.20000 172.851
64.37000 175.987
64.54000 174.912
64.71000 195.974
64.88000 217.103
65.05000 303.519
65.22000 417.293
65.39000 393.908
65.56000 356.743
65.73000 745.150
65.90000 1437.690
66.07000 477.797
66.24000 349.829
66.41000 537.977
66.58000 416.615
66.75000 354.879
66.92000 365.953
67.09000 394.969
67.26000 421.485
67.43000 443.692
67.60000 487.772
67.77000 553.252
67.94000 589.143
68.11000 628.382
68.28000 713.637
68.45000 863.732
68.62000 1275.319
68.79000 2527.691
68.96000 17973.016
69.13000 88672.938
69.30000 55332.516
69.47000 14364.105
69.64000 1693.176
69.81000 1087.745
69.98000 812.097
70.00000 795.301

File: BTO_Mapping_Theta2Theta_30-09-2025_001_51_6-180_-19-021.xy
20.00000 562.853
20.17000 569.939
20.34000 576.486
20.51000 576.668
20.68000 546.075
20.85000 566.896
21.02000 582.361
21.19000 553.619
21.36000 571.298
21.53000 529.592
21.70000 611.643
21.87000 810.369
22.04000 975.091
22.21000 686.123
22.38000 580.117
22.55000 538.679
22.72000 546.478
22.89000 542.846
23.06000 535.214
23.23000 518.652
23.40000 506.459
23.57000 502.050
23.74000 518.575
23.91000 514.774
24.08000 512.150
24.25000 502.655
24.42000 505.447
24.59000 508.234
24.76000 477.604
24.93000 491.154
25.10000 485.341
25.27000 465.839
25.44000 488.380
25.61000 484.009
25.78000 483.712
25.95000 476.971
26.12000 472.605
26.29000 444.509
26.46000 461.962
26.63000 456.944
26.80000 469.801
26.97000 461.656
27.14000 438.160
27.31000 451.648
27.48000 453.339
27.65000 446.403
27.82000 443.608
27.99000 439.205
28.16000 446.982
28.33000 457.739
28.50000 438.656
28.67000 416.737
28.84000 430.557
29.01000 425.992
29.18000 433.397
29.35000 444.836
29.52000 420.991
29.69000 420.712
29.86000 469.041
30.03000 450.625
30.20000 443.767
30.37000 441.450
30.54000 457.943
30.71000 473.723
30.88000 539.590
31.05000 983.419
31.22000 3191.177
31.39000 3687.695
31.56000 1189.662
31.73000 544.246
31.90000 461.724
32.07000 443.479
32.24000 418.406
32.41000 398.404
32.58000 396.108
32.75000 370.410
32.92000 444.802
33.09000 464.470
33.26000 376.067
33.43000 351.234
33.60000 343.603
33.77000 338.248
33.94000 345.553
34.11000 356.715
34.28000 343.602
34.45000 341.091
34.62000 333.748
34.79000 329.086
34.96000 343.314
35.13000 317.871
35.30000 329.585
35.47000 319.769
35.64000 312.581
35.81000 315.413
35.98000 290.843
36.15000 308.346
36.32000 321.532
36.49000 311.604
36.66000 300.006
36.83000 308.315
37.00000 303.630
37.17000 302.967
37.34000 298.335
37.51000 307.632
37.68000 296.673
37.85000 296.368
38.02000 282.331
38.19000 302.641
38.36000 361.452
38.53000 487.867
38.70000 580.058
38.87000 386.589
39.04000 311.448
39.21000 285.435
39.38000 266.670
39.55000 269.872
39.72000 263.548
39.89000 274.729
40.06000 251.246
40.23000 269.754
40.40000 270.241
40.57000 271.283
40.74000 260.227
40.91000 265.587
41.08000 254.273
41.25000 256.939
41.42000 250.651
41.59000 250.909
41.76000 254.284
41.93000 264.372
42.10000 228.011
42.27000 250.690
42.44000 227.901
42.61000 240.233
42.78000 238.422
42.95000 237.553
43.12000 244.364
43.29000 234.523
43.46000 230.447
43.63000 223.496
43.80000 223.332
43.97000 231.110
44.14000 238.487
44.31000 236.009
44.48000 248.684
44.65000 296.013
44.82000 478.435
44.99000 595.865
45.16000 437.865
45.33000 279.751
45.50000 250.209
45.67000 236.110
45.84000 219.585
46.01000 204.848
46.18000 215.674
46.35000 201.021
46.52000 203.646
46.69000 205.048
46.86000 218.098
47.03000 203.346
47.20000 186.320
47.37000 205.879
47.54000 202.354
47.71000 194.216
47.88000 186.345
48.05000 191.889
48.22000 179.597
48.39000 191.121
48.56000 199.631
48.73000 186.180
48.90000 185.665
49.07000 179.121
49.24000 186.440
49.41000 183.735
49.58000 188.745
49.75000 183.060
49.92000 169.357
50.09000 181.292
50.26000 190.597
50.43000 247.831
50.60000 306.558
50.77000 264.307
50.94000 211.331
51.11000 192.034
51.28000 181.992
51.45000 171.251
51.62000 175.538
51.79000 167.987
51.96000 168.772
52.13000 166.481
52.30000 162.917
52.47000 169.783
52.64000 158.200
52.81000 159.998
52.98000 166.524
53.15000 154.526
53.32000 168.338
53.49000 163.400
53.66000 161.306
53.83000 166.744
54.00000 161.185
54.17000 158.185
54.34000 167.131
54.51000 161.507
54.68000 150.377
54.85000 160.684
55.02000 173.287
55.19000 168.087
55.36000 190.820
55.53000 263.513
55.70000 489.025
55.87000 649.954
56.04000 433.831
56.21000 222.334
56.38000 173.007
56.55000 152.255
56.72000 156.325
56.89000 166.404
57.06000 148.671
57.23000 142.610
57.40000 148.860
57.57000 145.319
57.74000 161.390
57.91000 141.935
58.08000 139.718
58.25000 145.056
58.42000 147.107
58.59000 142.953
58.76000 136.547
58.93000 129.305
59.10000 139.965
59.27000 133.375
59.44000 137.160
59.61000 132.777
59.78000 145.472
59.95000 142.585
60.12000 134.215
60.29000 133.446
60.46000 151.133
60.63000 133.042
60.80000 135.235
60.97000 146.252
61.14000 134.010
61.31000 137.591
61.48000 157.326
61.65000 333.443
61.82000 230.052
61.99000 154.222
62.16000 153.105
62.33000 143.986
62.50000 141.647
62.67000 141.213
62.84000 147.550
63.01000 146.653
63.18000 136.184
63.35000 157.917
63.52000 147.468
63.69000 155.180
63.86000 152.321
64.03000 163.425
64.20000 156.746
64.37000 166.894
64.54000 163.990
64.71000 182.499
64.88000 201.546
65.05000 223.666
65.22000 314.905
65.39000 412.135
65.56000 464.927
65.73000 774.057
65.90000 1356.603
66.07000 410.786
66.24000 337.409
66.41000 512.080
66.58000 386.714
66.75000 338.326
66.92000 361.034
67.09000 382.624
67.26000 395.843
67.43000 443.741
67.60000 466.810
67.77000 522.268
67.94000 573.821
68.11000 619.390
68.28000 711.628
68.45000 827.764
68.62000 1193.102
68.79000 2385.784
68.96000 18855.475
69.13000 81405.836
69.30000 48271.328
69.47000 11054.899
69.64000 1497.275
69.81000 983.728
69.98000 792.355
70.00000 752.908

File: BTO_Mapping_Theta2Theta_30-09-2025_001_52_9-271_-28-532.xy
20.00000 570.329
20.17000 580.151
20.34000 597.450
20.51000 545.522
20.68000 578.848
20.85000 566.724
21.02000 579.959
21.19000 589.112
21.36000 579.313
21.53000 591.482
21.70000 708.198
21.87000 1030.123
22.04000 1016.852
22.21000 674.666
22.38000 572.664
22.55000 571.615
22.72000 523.369
22.89000 524.554
23.06000 522.281
23.23000 532.439
23.40000 534.979
23.57000 517.485
23.74000 531.868
23.91000 504.922
24.08000 508.688
24.25000 489.568
24.42000 519.457
24.59000 505.202
24.76000 519.141
24.93000 519.810
25.10000 508.683
25.27000 495.387
25.44000 474.680
25.61000 491.367
25.78000 474.850
25.95000 484.651
26.12000 509.341
26.29000 490.900
26.46000 486.725
26.63000 458.363
26.80000 472.194
26.97000 478.129
27.14000 475.887
27.31000 453.601
27.48000 465.949
27.65000 481.370
27.82000 451.587
27.99000 466.244
28.16000 473.097
28.33000 451.046
28.50000 451.196
28.67000 444.074
28.84000 445.988
29.01000 448.863
29.18000 427.712
29.35000 443.349
29.52000 444.835
29.69000 446.096
29.86000 458.177
30.03000 468.417
30.20000 452.028
30.37000 473.082
30.54000 480.335
30.71000 501.820
30.88000 599.414
31.05000 1628.249
31.22000 4015.660
31.39000 2673.365
31.56000 863.255
31.73000 535.589
31.90000 444.287
32.07000 420.781
32.24000 429.538
32.41000 420.580
32.58000 404.069
32.75000 381.934
32.92000 467.882
33.09000 473.833
33.26000 370.004
33.43000 366.478
33.60000 346.994
33.77000 338.896
33.94000 337.641
34.11000 334.560
34.28000 328.641
34.45000 341.193
34.62000 320.763
34.79000 334.927
34.96000 328.734
35.13000 325.560
35.30000 318.922
35.47000 313.913
35.64000 332.031
35.81000 330.190
35.98000 316.213
36.15000 312.773
36.32000 303.345
36.49000 311.525
36.66000 299.901
36.83000 302.499
37.00000 316.599
37.17000 299.856
37.34000 314.677
37.51000 297.805
37.68000 304.876
37.85000 320.730
38.02000 301.397
38.19000 319.774
38.36000 390.407
38.53000 488.722
38.70000 423.283
38.87000 338.544
39.04000 308.305
39.21000 287.585
39.38000 282.619
39.55000 279.946
39.72000 279.269
39.89000 266.726
40.06000 273.145
40.23000 268.532
40.40000 270.733
40.57000 254.515
40.74000 252.514
40.91000 253.285
41.08000 241.449
41.25000 257.620
41.42000 260.211
41.59000 256.907
41.76000 235.019
41.93000 250.936
42.10000 231.938
42.27000 244.109
42.44000 241.419
42.61000 255.664
42.78000 260.369
42.95000 246.696
43.12000 236.079
43.29000 235.944
43.46000 239.892
43.63000 239.713
43.80000 232.134
43.97000 247.551
44.14000 262.225
44.31000 246.332
44.48000 311.813
44.65000 483.808
44.82000 693.272
44.99000 643.737
45.16000 428.292
45.33000 294.635
45.50000 247.117
45.67000 224.634
45.84000 224.948
46.01000 218.148
46.18000 222.240
46.35000 213.330
46.52000 208.860
46.69000 209.950
46.86000 216.621
47.03000 205.588
47.20000 206.802
47.37000 206.174
47.54000 207.252
47.71000 185.394
47.88000 197.210
48.05000 190.597
48.22000 193.364
48.39000 191.250
48.56000 192.993
48.73000 193.892
48.90000 208.482
49.07000 183.073
49.24000 195.013
49.41000 175.310
49.58000 177.084
49.75000 201.497
49.92000 172.226
50.09000 194.126
50.26000 233.054
50.43000 264.238
50.60000 292.707
50.77000 231.493
50.94000 194.752
51.11000 176.990
51.28000 168.917
51.45000 177.177
51.62000 174.812
51.79000 174.215
51.96000 168.717
52.13000 165.783
52.30000 170.032
52.47000 167.804
52.64000 167.112
52.81000 158.924
52.98000 160.553
53.15000 156.068
53.32000 171.114
53.49000 160.386
53.66000 157.539
53.83000 156.344
54.00000 160.848
54.17000 161.615
54.34000 155.141
54.51000 164.546
54.68000 150.775
54.85000 173.186
55.02000 174.182
55.19000 178.869
55.36000 229.605
55.53000 394.380
55.70000 550.457
55.87000 453.524
56.04000 283.352
56.21000 204.860
56.38000 189.216
56.55000 170.421
56.72000 147.899
56.89000 162.895
57.06000 140.023
57.23000 145.452
57.40000 149.024
57.57000 146.795
57.74000 139.794
57.91000 147.976
58.08000 140.928
58.25000 144.752
58.42000 136.771
58.59000 148.158
58.76000 138.997
58.93000 140.195
59.10000 127.644
59.27000 134.478
59.44000 138.157
59.61000 146.655
59.78000 136.326
59.95000 132.119
60.12000 134.633
60.29000 142.720
60.46000 134.603
60.63000 143.776
60.80000 130.653
60.97000 140.115
61.14000 126.696
61.31000 139.762
61.48000 151.765
61.65000 330.342
61.82000 225.842
61.99000 138.475
62.16000 161.055
62.33000 141.823
62.50000 143.061
62.67000 142.588
62.84000 146.197
63.01000 145.336
63.18000 151.773
63.35000 160.266
63.52000 157.509
63.69000 153.957
63.86000 156.659
64.03000 156.359
64.20000 151.619
64.37000 171.385
64.54000 173.338
64.71000 190.348
64.88000 207.509
65.05000 284.098
65.22000 405.740
65.39000 418.602
65.56000 352.529
65.73000 763.332
65.90000 1386.021
66.07000 421.329
66.24000 354.596
66.41000 545.321
66.58000 374.359
66.75000 352.616
66.92000 355.923
67.09000 387.945
67.26000 425.072
67.43000 464.799
67.60000 494.630
67.77000 534.536
67.94000 556.268
68.11000 620.403
68.28000 728.395
68.45000 841.445
68.62000 1246.379
68.79000 2456.666
68.96000 20400.961
69.13000 83552.109
69.30000 49540.020
69.47000 11483.870
69.64000 1519.114
69.81000 1022.962
69.98000 793.734
70.00000 770.179

File: BTO_Mapping_Theta2Theta_30-09-2025_001_53_12-361_-38-042.xy
20.00000 598.029
20.17000 578.391
20.34000 574.212
20.51000 566.370
20.68000 555.677
20.85000 588.754
21.02000 552.913
21.19000 572.589
21.36000 549.719
21.53000 585.604
21.70000 727.750
21.87000 1053.747
22.04000 991.735
22.21000 676.517
22.38000 568.181
22.55000 564.014
22.72000 566.334
22.89000 536.309
23.06000 545.801
23.23000 525.566
23.40000 524.482
23.57000 516.402
23.74000 533.073
23.91000 535.350
24.08000 508.154
24.25000 518.987
24.42000 495.003
24.59000 514.384
24.76000 493.479
24.93000 495.070
25.10000 507.939
25.27000 491.069
25.44000 504.707
25.61000 483.879
25.78000 493.473
25.95000 485.382
26.12000 477.175
26.29000 493.805
26.46000 467.639
26.63000 472.134
26.80000 462.261
26.97000 472.539
27.14000 486.946
27.31000 475.285
27.48000 468.239
27.65000 482.564
27.82000 477.045
27.99000 465.556
28.16000 485.286
28.33000 473.480
28.50000 459.064
28.67000 439.736
28.84000 456.036
29.01000 455.673
29.18000 447.150
29.35000 447.280
29.52000 449.392
29.69000 466.699
29.86000 501.525
30.03000 483.672
30.20000 478.303
30.37000 473.733
30.54000 476.462
30.71000 525.938
30.88000 748.849
31.05000 2400.692
31.22000 4419.582
31.39000 2205.038
31.56000 738.313
31.73000 515.139
31.90000 456.966
32.07000 426.743
32.24000 417.048
32.41000 416.603
32.58000 403.945
32.75000 410.270
32.92000 485.261
33.09000 483.343
33.26000 381.855
33.43000 369.562
33.60000 363.352
33.77000 354.362
33.94000 330.235
34.11000 363.774
34.28000 349.392
34.45000 342.959
34.62000 337.258
34.79000 338.357
34.96000 319.761
35.13000 354.957
35.30000 332.052
35.47000 309.927
35.64000 315.677
35.81000 321.563
35.98000 331.494
36.15000 317.732
36.32000 316.411
36.49000 327.641
36.66000 317.129
36.83000 309.900
37.00000 321.052
37.17000 309.765
37.34000 305.952
37.51000 294.483
37.68000 316.478
37.85000 305.646
38.02000 309.489
38.19000 338.631
38.36000 400.579
38.53000 467.480
38.70000 405.776
38.87000 344.049
39.04000 313.127
39.21000 296.168
39.38000 288.575
39.55000 279.768
39.72000 279.221
39.89000 276.544
40.06000 264.549
40.23000 254.763
40.40000 276.672
40.57000 261.942
40.74000 248.251
40.91000 266.905
41.08000 262.894
41.25000 262.896
41.42000 260.422
41.59000 251.457
41.76000 264.509
41.93000 247.085
42.10000 253.661
42.27000 229.421
42.44000 236.722
42.61000 247.927
42.78000 247.744
42.95000 234.228
43.12000 242.768
43.29000 251.032
43.46000 243.750
43.63000 242.070
43.80000 235.265
43.97000 238.502
44.14000 239.506
44.31000 269.130
44.48000 353.938
44.65000 564.899
44.82000 738.332
44.99000 606.732
45.16000 431.419
45.33000 312.567
45.50000 253.595
45.67000 235.367
45.84000 232.561
46.01000 220.536
46.18000 216.563
46.35000 219.213
46.52000 212.007
46.69000 209.209
46.86000 208.093
47.03000 197.881
47.20000 204.268
47.37000 200.946
47.54000 201.555
47.71000 201.285
47.88000 198.632
48.05000 203.201
48.22000 188.356
48.39000 186.882
48.56000 204.863
48.73000 198.178
48.90000 188.096
49.07000 189.251
49.24000 191.394
49.41000 191.673
49.58000 185.204
49.75000 186.399
49.92000 184.207
50.09000 205.524
50.26000 240.639
50.43000 285.966
50.60000 268.930
50.77000 221.616
50.94000 183.502
51.11000 182.245
51.28000 182.184
51.45000 171.628
51.62000 159.163
51.79000 167.566
51.96000 159.361
52.13000 161.147
52.30000 171.014
52.47000 173.115
52.64000 168.248
52.81000 171.636
52.98000 171.375
53.15000 171.863
53.32000 163.758
53.49000 170.766
53.66000 173.713
53.83000 160.591
54.00000 166.108
54.17000 171.195
54.34000 169.991
54.51000 161.173
54.68000 181.471
54.85000 173.427
55.02000 173.972
55.19000 200.999
55.36000 286.635
55.53000 466.367
55.70000 532.752
55.87000 381.102
56.04000 253.443
56.21000 184.290
56.38000 174.907
56.55000 160.182
56.72000 151.280
56.89000 155.446
57.06000 153.054
57.23000 149.724
57.40000 151.189
57.57000 146.194
57.74000 153.155
57.91000 142.646
58.08000 134.774
58.25000 136.315
58.42000 150.777
58.59000 138.506
58.76000 144.535
58.93000 147.401
59.10000 146.065
59.27000 139.181
59.44000 144.387
59.61000 144.750
59.78000 135.326
59.95000 138.796
60.12000 139.384
60.29000 146.167
60.46000 135.594
60.63000 127.476
60.80000 141.293
60.97000 137.164
61.14000 138.142
61.31000 147.787
61.48000 163.421
61.65000 356.276
61.82000 237.199
61.99000 149.191
62.16000 138.498
62.33000 156.560
62.50000 147.081
62.67000 151.679
62.84000 158.009
63.01000 150.765
63.18000 155.116
63.35000 149.370
63.52000 153.945
63.69000 149.528
63.86000 170.545
64.03000 168.877
64.20000 169.836
64.37000 175.923
64.54000 183.309
64.71000 196.973
64.88000 242.854
65.05000 361.699
65.22000 432.300
65.39000 371.655
65.56000 337.041
65.73000 821.220
65.90000 1493.153
66.07000 444.461
66.24000 359.577
66.41000 537.401
66.58000 399.463
66.75000 353.221
66.92000 375.585
67.09000 417.654
67.26000 429.599
67.43000 476.689
67.60000 502.930
67.77000 557.215
67.94000 608.110
68.11000 657.857
68.28000 761.275
68.45000 903.475
68.62000 1304.780
68.79000 2679.865
68.96000 23237.852
69.13000 92913.602
69.30000 54929.684
69.47000 12591.784
69.64000 1673.155
69.81000 1045.824
69.98000 837.104
70.00000 800.620