Folder: Master-Thesis/XRD/XRD/30-09-2025 Dep 1/XY Data (part 3)

File: BTO_Mapping_Theta2Theta_30-09-2025_001_18_-1-045_9-945.xy
20.00000 562.578
20.17000 567.259
20.34000 552.222
20.51000 562.078
20.68000 569.757
20.85000 571.836
21.02000 546.543
21.19000 530.234
21.36000 544.855
21.53000 545.823
21.70000 555.549
21.87000 607.535
22.04000 713.755
22.21000 646.134
22.38000 545.733
22.55000 526.803
22.72000 512.333
22.89000 507.830
23.06000 519.414
23.23000 501.205
23.40000 517.005
23.57000 536.014
23.74000 510.939
23.91000 531.563
24.08000 533.368
24.25000 511.521
24.42000 499.737
24.59000 479.591
24.76000 491.802
24.93000 473.525
25.10000 469.737
25.27000 470.109
25.44000 485.201
25.61000 469.670
25.78000 459.666
25.95000 452.013
26.12000 474.410
26.29000 472.019
26.46000 452.028
26.63000 460.291
26.80000 445.303
26.97000 458.511
27.14000 454.728
27.31000 433.260
27.48000 441.153
27.65000 438.680
27.82000 445.914
27.99000 441.565
28.16000 422.904
28.33000 441.151
28.50000 423.755
28.67000 419.980
28.84000 429.082
29.01000 408.917
29.18000 422.270
29.35000 440.442
29.52000 403.652
29.69000 413.752
29.86000 424.995
30.03000 460.028
30.20000 453.004
30.37000 423.527
30.54000 426.336
30.71000 439.096
30.88000 492.578
31.05000 611.865
31.22000 1764.210
31.39000 3410.804
31.56000 1696.516
31.73000 578.682
31.90000 450.225
32.07000 417.598
32.24000 398.921
32.41000 387.624
32.58000 372.956
32.75000 380.147
32.92000 365.486
33.09000 382.193
33.26000 352.551
33.43000 358.228
33.60000 341.498
33.77000 344.126
33.94000 330.684
34.11000 332.801
34.28000 342.706
34.45000 349.048
34.62000 351.514
34.79000 326.096
34.96000 324.588
35.13000 323.539
35.30000 317.038
35.47000 293.169
35.64000 290.795
35.81000 322.454
35.98000 309.474
36.15000 309.099
36.32000 303.842
36.49000 309.030
36.66000 295.308
36.83000 298.054
37.00000 309.892
37.17000 299.241
37.34000 295.827
37.51000 306.690
37.68000 297.430
37.85000 290.571
38.02000 288.502
38.19000 318.510
38.36000 340.110
38.53000 486.036
38.70000 916.453
38.87000 701.031
39.04000 356.234
39.21000 296.379
39.38000 274.767
39.55000 281.191
39.72000 276.773
39.89000 261.391
40.06000 271.669
40.23000 258.438
40.40000 243.811
40.57000 250.555
40.74000 262.691
40.91000 247.280
41.08000 259.033
41.25000 244.667
41.42000 248.915
41.59000 245.379
41.76000 242.175
41.93000 262.266
42.10000 244.442
42.27000 248.204
42.44000 226.759
42.61000 240.144
42.78000 229.571
42.95000 238.806
43.12000 227.371
43.29000 234.016
43.46000 228.447
43.63000 221.738
43.80000 218.215
43.97000 221.083
44.14000 225.141
44.31000 224.400
44.48000 227.420
44.65000 243.424
44.82000 284.380
44.99000 324.935
45.16000 364.036
45.33000 277.694
45.50000 238.817
45.67000 206.991
45.84000 217.118
46.01000 204.843
46.18000 201.521
46.35000 214.616
46.52000 202.640
46.69000 196.365
46.86000 191.628
47.03000 191.922
47.20000 194.279
47.37000 192.434
47.54000 187.547
47.71000 182.015
47.88000 180.526
48.05000 174.825
48.22000 195.489
48.39000 190.242
48.56000 190.961
48.73000 182.737
48.90000 193.377
49.07000 180.789
49.24000 177.224
49.41000 169.258
49.58000 191.020
49.75000 173.802
49.92000 179.208
50.09000 168.783
50.26000 174.870
50.43000 197.227
50.60000 238.552
50.77000 264.731
50.94000 199.104
51.11000 187.928
51.28000 173.149
51.45000 171.151
51.62000 171.070
51.79000 174.503
51.96000 161.421
52.13000 159.791
52.30000 160.378
52.47000 157.385
52.64000 168.158
52.81000 162.643
52.98000 164.624
53.15000 156.645
53.32000 163.519
53.49000 161.745
53.66000 153.737
53.83000 160.794
54.00000 156.358
54.17000 152.302
54.34000 148.275
54.51000 141.946
54.68000 163.113
54.85000 162.129
55.02000 150.683
55.19000 165.782
55.36000 172.786
55.53000 187.493
55.70000 296.623
55.87000 591.357
56.04000 598.441
56.21000 346.082
56.38000 208.219
56.55000 161.843
56.72000 147.792
56.89000 156.334
57.06000 138.979
57.23000 137.861
57.40000 138.688
57.57000 149.413
57.74000 131.313
57.91000 132.729
58.08000 137.436
58.25000 141.462
58.42000 133.651
58.59000 141.695
58.76000 132.925
58.93000 145.981
59.10000 138.245
59.27000 136.464
59.44000 129.937
59.61000 128.251
59.78000 140.987
59.95000 134.132
60.12000 139.227
60.29000 133.524
60.46000 131.195
60.63000 127.572
60.80000 141.873
60.97000 136.921
61.14000 132.341
61.31000 129.560
61.48000 144.607
61.65000 246.063
61.82000 188.990
61.99000 144.252
62.16000 142.413
62.33000 133.118
62.50000 144.878
62.67000 150.953
62.84000 138.641
63.01000 137.404
63.18000 142.581
63.35000 153.250
63.52000 153.442
63.69000 146.308
63.86000 155.785
64.03000 162.292
64.20000 140.814
64.37000 151.811
64.54000 173.772
64.71000 171.463
64.88000 167.526
65.05000 196.963
65.22000 230.782
65.39000 314.449
65.56000 397.810
65.73000 592.587
65.90000 925.579
66.07000 331.476
66.24000 279.594
66.41000 394.690
66.58000 321.753
66.75000 277.354
66.92000 316.241
67.09000 335.116
67.26000 353.375
67.43000 389.434
67.60000 404.064
67.77000 456.193
67.94000 479.148
68.11000 524.966
68.28000 595.005
68.45000 670.793
68.62000 911.418
68.79000 1585.022
68.96000 9332.052
69.13000 48728.707
69.30000 29397.984
69.47000 7261.182
69.64000 1114.180
69.81000 774.766
69.98000 639.874
70.00000 618.906

File: BTO_Mapping_Theta2Theta_30-09-2025_001_21_-4-181_39-781.xy
20.00000 578.865
20.17000 547.769
20.34000 578.101
20.51000 552.194
20.68000 574.380
20.85000 561.440
21.02000 542.194
21.19000 556.982
21.36000 559.067
21.53000 554.630
21.70000 559.113
21.87000 623.226
22.04000 649.905
22.21000 649.724
22.38000 551.515
22.55000 523.815
22.72000 531.292
22.89000 535.607
23.06000 508.257
23.23000 522.272
23.40000 516.102
23.57000 519.768
23.74000 520.199
23.91000 538.151
24.08000 552.601
24.25000 524.287
24.42000 503.822
24.59000 506.389
24.76000 483.852
24.93000 496.954
25.10000 482.851
25.27000 472.194
25.44000 464.888
25.61000 477.770
25.78000 471.560
25.95000 462.677
26.12000 487.405
26.29000 468.992
26.46000 434.805
26.63000 455.485
26.80000 449.048
26.97000 427.537
27.14000 448.294
27.31000 429.342
27.48000 450.223
27.65000 445.156
27.82000 453.328
27.99000 434.623
28.16000 429.611
28.33000 418.404
28.50000 428.537
28.67000 423.908
28.84000 408.019
29.01000 421.616
29.18000 426.444
29.35000 418.947
29.52000 403.957
29.69000 416.750
29.86000 409.771
30.03000 417.680
30.20000 412.881
30.37000 427.064
30.54000 401.446
30.71000 408.275
30.88000 447.664
31.05000 519.669
31.22000 946.000
31.39000 1574.229
31.56000 1027.643
31.73000 545.043
31.90000 445.078
32.07000 435.531
32.24000 412.858
32.41000 375.547
32.58000 362.559
32.75000 378.423
32.92000 369.816
33.09000 379.993
33.26000 360.354
33.43000 337.924
33.60000 334.731
33.77000 344.431
33.94000 341.056
34.11000 343.640
34.28000 369.125
34.45000 369.308
34.62000 348.947
34.79000 341.227
34.96000 341.544
35.13000 312.923
35.30000 312.393
35.47000 321.509
35.64000 288.498
35.81000 319.014
35.98000 303.349
36.15000 301.568
36.32000 304.373
36.49000 295.577
36.66000 297.413
36.83000 310.998
37.00000 285.917
37.17000 301.400
37.34000 302.833
37.51000 297.847
37.68000 302.797
37.85000 297.165
38.02000 288.280
38.19000 309.003
38.36000 318.077
38.53000 479.848
38.70000 895.765
38.87000 734.700
39.04000 373.650
39.21000 303.425
39.38000 268.610
39.55000 269.830
39.72000 275.442
39.89000 264.831
40.06000 273.794
40.23000 260.371
40.40000 263.026
40.57000 270.150
40.74000 240.875
40.91000 255.695
41.08000 240.773
41.25000 255.160
41.42000 245.253
41.59000 250.444
41.76000 246.674
41.93000 243.962
42.10000 248.193
42.27000 241.895
42.44000 231.453
42.61000 236.088
42.78000 232.880
42.95000 228.733
43.12000 231.780
43.29000 228.197
43.46000 228.471
43.63000 222.364
43.80000 239.399
43.97000 228.186
44.14000 226.327
44.31000 202.020
44.48000 227.739
44.65000 240.751
44.82000 277.026
44.99000 313.716
45.16000 326.581
45.33000 271.145
45.50000 243.234
45.67000 226.138
45.84000 221.901
46.01000 214.720
46.18000 215.052
46.35000 204.247
46.52000 199.033
46.69000 196.246
46.86000 201.640
47.03000 208.588
47.20000 195.105
47.37000 182.688
47.54000 185.795
47.71000 196.154
47.88000 195.766
48.05000 197.357
48.22000 188.169
48.39000 191.289
48.56000 193.725
48.73000 189.714
48.90000 187.856
49.07000 178.582
49.24000 175.546
49.41000 183.258
49.58000 162.275
49.75000 163.877
49.92000 167.815
50.09000 181.091
50.26000 175.131
50.43000 173.122
50.60000 204.217
50.77000 204.837
50.94000 192.639
51.11000 178.309
51.28000 167.001
51.45000 167.113
51.62000 169.506
51.79000 158.592
51.96000 167.329
52.13000 158.930
52.30000 159.172
52.47000 157.194
52.64000 152.568
52.81000 163.717
52.98000 168.732
53.15000 155.897
53.32000 164.796
53.49000 163.079
53.66000 165.928
53.83000 162.683
54.00000 146.018
54.17000 152.609
54.34000 157.081
54.51000 166.014
54.68000 137.836
54.85000 155.735
55.02000 167.251
55.19000 164.397
55.36000 177.803
55.53000 201.212
55.70000 293.274
55.87000 485.269
56.04000 510.722
56.21000 322.493
56.38000 202.531
56.55000 174.079
56.72000 162.638
56.89000 149.874
57.06000 152.711
57.23000 144.782
57.40000 154.487
57.57000 143.815
57.74000 151.644
57.91000 147.825
58.08000 155.434
58.25000 145.445
58.42000 135.533
58.59000 140.332
58.76000 140.819
58.93000 148.240
59.10000 128.620
59.27000 140.094
59.44000 137.525
59.61000 139.147
59.78000 130.192
59.95000 137.508
60.12000 123.877
60.29000 130.540
60.46000 134.966
60.63000 125.625
60.80000 132.246
60.97000 132.523
61.14000 147.157
61.31000 130.171
61.48000 142.274
61.65000 230.222
61.82000 195.477
61.99000 146.190
62.16000 145.665
62.33000 133.256
62.50000 147.398
62.67000 140.622
62.84000 148.114
63.01000 145.239
63.18000 144.733
63.35000 141.661
63.52000 150.853
63.69000 150.188
63.86000 136.950
64.03000 162.669
64.20000 158.125
64.37000 174.894
64.54000 173.960
64.71000 186.265
64.88000 176.348
65.05000 185.381
65.22000 198.633
65.39000 242.244
65.56000 281.841
65.73000 484.577
65.90000 896.355
66.07000 349.077
66.24000 286.631
66.41000 403.187
66.58000 328.820
66.75000 304.990
66.92000 316.247
67.09000 325.852
67.26000 354.990
67.43000 396.001
67.60000 400.205
67.77000 442.794
67.94000 477.814
68.11000 528.514
68.28000 615.686
68.45000 673.695
68.62000 925.596
68.79000 1646.241
68.96000 8272.864
69.13000 49040.672
69.30000 30456.170
69.47000 8169.363
69.64000 1173.697
69.81000 799.100
69.98000 653.597
70.00000 651.947

File: BTO_Mapping_Theta2Theta_30-09-2025_001_22_-5-000_8-660.xy
20.00000 548.488
20.17000 575.391
20.34000 555.371
20.51000 565.705
20.68000 562.396
20.85000 545.977
21.02000 560.415
21.19000 555.994
21.36000 556.097
21.53000 543.387
21.70000 583.407
21.87000 607.523
22.04000 699.496
22.21000 646.977
22.38000 553.525
22.55000 541.844
22.72000 538.545
22.89000 498.779
23.06000 523.263
23.23000 504.445
23.40000 510.877
23.57000 506.087
23.74000 510.316
23.91000 514.843
24.08000 515.444
24.25000 525.012
24.42000 501.561
24.59000 484.055
24.76000 514.036
24.93000 482.459
25.10000 473.348
25.27000 481.662
25.44000 470.307
25.61000 453.756
25.78000 461.738
25.95000 452.114
26.12000 453.482
26.29000 471.498
26.46000 454.612
26.63000 438.587
26.80000 449.319
26.97000 444.348
27.14000 437.255
27.31000 442.947
27.48000 432.438
27.65000 438.059
27.82000 442.079
27.99000 433.864
28.16000 447.993
28.33000 425.140
28.50000 430.734
28.67000 429.206
28.84000 427.747
29.01000 427.115
29.18000 434.343
29.35000 415.414
29.52000 419.934
29.69000 414.013
29.86000 423.194
30.03000 449.964
30.20000 423.542
30.37000 424.916
30.54000 429.927
30.71000 438.717
30.88000 484.745
31.05000 592.071
31.22000 1675.328
31.39000 3400.686
31.56000 1738.465
31.73000 576.135
31.90000 450.454
32.07000 416.344
32.24000 389.963
32.41000 391.793
32.58000 374.811
32.75000 371.913
32.92000 378.369
33.09000 390.285
33.26000 350.173
33.43000 344.885
33.60000 333.522
33.77000 341.349
33.94000 338.686
34.11000 339.875
34.28000 346.678
34.45000 367.640
34.62000 355.207
34.79000 330.337
34.96000 329.054
35.13000 327.590
35.30000 318.960
35.47000 332.860
35.64000 310.531
35.81000 321.663
35.98000 319.041
36.15000 288.859
36.32000 304.087
36.49000 299.035
36.66000 310.012
36.83000 308.005
37.00000 307.626
37.17000 300.910
37.34000 296.121
37.51000 279.508
37.68000 288.920
37.85000 289.193
38.02000 300.271
38.19000 310.208
38.36000 327.226
38.53000 500.375
38.70000 933.328
38.87000 711.800
39.04000 370.602
39.21000 284.683
39.38000 271.130
39.55000 272.579
39.72000 262.054
39.89000 264.998
40.06000 266.207
40.23000 268.561
40.40000 245.991
40.57000 256.433
40.74000 245.442
40.91000 251.615
41.08000 241.388
41.25000 248.083
41.42000 243.317
41.59000 229.537
41.76000 246.609
41.93000 247.915
42.10000 250.147
42.27000 237.630
42.44000 244.381
42.61000 243.136
42.78000 240.801
42.95000 223.506
43.12000 230.125
43.29000 226.556
43.46000 232.449
43.63000 231.464
43.80000 219.420
43.97000 210.618
44.14000 209.409
44.31000 227.245
44.48000 224.619
44.65000 241.205
44.82000 258.698
44.99000 320.023
45.16000 359.039
45.33000 297.534
45.50000 242.726
45.67000 212.176
45.84000 213.313
46.01000 217.187
46.18000 193.652
46.35000 200.522
46.52000 214.868
46.69000 216.705
46.86000 209.209
47.03000 201.668
47.20000 202.657
47.37000 196.399
47.54000 185.278
47.71000 187.669
47.88000 198.759
48.05000 191.894
48.22000 172.932
48.39000 181.531
48.56000 188.226
48.73000 180.375
48.90000 184.417
49.07000 189.958
49.24000 176.285
49.41000 175.747
49.58000 170.368
49.75000 175.298
49.92000 174.517
50.09000 178.051
50.26000 179.382
50.43000 189.595
50.60000 246.082
50.77000 255.200
50.94000 209.907
51.11000 171.214
51.28000 172.868
51.45000 161.107
51.62000 166.827
51.79000 166.908
51.96000 169.101
52.13000 163.009
52.30000 158.752
52.47000 165.026
52.64000 162.128
52.81000 147.905
52.98000 167.534
53.15000 164.233
53.32000 155.420
53.49000 158.109
53.66000 164.559
53.83000 154.719
54.00000 157.396
54.17000 155.704
54.34000 150.096
54.51000 165.238
54.68000 155.595
54.85000 146.980
55.02000 156.918
55.19000 164.349
55.36000 164.288
55.53000 193.103
55.70000 316.299
55.87000 579.797
56.04000 607.386
56.21000 320.019
56.38000 205.952
56.55000 159.692
56.72000 161.124
56.89000 162.117
57.06000 159.918
57.23000 147.101
57.40000 149.211
57.57000 154.157
57.74000 138.997
57.91000 142.670
58.08000 137.630
58.25000 137.161
58.42000 125.928
58.59000 144.531
58.76000 144.260
58.93000 137.529
59.10000 134.918
59.27000 131.378
59.44000 129.266
59.61000 132.687
59.78000 132.040
59.95000 140.973
60.12000 137.344
60.29000 139.019
60.46000 128.427
60.63000 132.005
60.80000 131.913
60.97000 141.229
61.14000 133.529
61.31000 133.401
61.48000 140.927
61.65000 242.587
61.82000 197.513
61.99000 145.495
62.16000 139.923
62.33000 143.264
62.50000 134.272
62.67000 138.340
62.84000 143.667
63.01000 149.254
63.18000 145.507
63.35000 144.683
63.52000 151.942
63.69000 154.179
63.86000 150.690
64.03000 155.000
64.20000 150.975
64.37000 155.574
64.54000 155.053
64.71000 167.709
64.88000 170.548
65.05000 182.090
65.22000 235.331
65.39000 300.784
65.56000 404.035
65.73000 623.405
65.90000 949.901
66.07000 340.351
66.24000 284.300
66.41000 404.439
66.58000 316.971
66.75000 289.498
66.92000 310.801
67.09000 315.565
67.26000 346.999
67.43000 387.267
67.60000 405.773
67.77000 453.906
67.94000 471.779
68.11000 510.833
68.28000 574.851
68.45000 663.077
68.62000 894.150
68.79000 1656.853
68.96000 8825.418
69.13000 48593.828
69.30000 29640.238
69.47000 7583.578
69.64000 1127.814
69.81000 788.193
69.98000 644.333
70.00000 622.447

File: BTO_Mapping_Theta2Theta_30-09-2025_001_23_-10-000_17-321.xy
20.00000 574.312
20.17000 541.316
20.34000 573.238
20.51000 549.232
20.68000 562.956
20.85000 563.166
21.02000 561.471
21.19000 546.735
21.36000 527.046
21.53000 535.054
21.70000 541.768
21.87000 589.704
22.04000 649.063
22.21000 605.741
22.38000 566.141
22.55000 551.611
22.72000 514.952
22.89000 526.231
23.06000 530.224
23.23000 486.340
23.40000 533.598
23.57000 499.642
23.74000 521.478
23.91000 518.971
24.08000 528.174
24.25000 503.982
24.42000 483.006
24.59000 477.777
24.76000 480.218
24.93000 488.337
25.10000 473.701
25.27000 471.067
25.44000 463.474
25.61000 471.866
25.78000 461.999
25.95000 464.436
26.12000 476.944
26.29000 473.204
26.46000 450.765
26.63000 446.872
26.80000 451.803
26.97000 454.107
27.14000 448.976
27.31000 450.313
27.48000 437.750
27.65000 450.136
27.82000 434.481
27.99000 420.501
28.16000 423.187
28.33000 434.324
28.50000 431.473
28.67000 402.586
28.84000 427.351
29.01000 406.746
29.18000 397.013
29.35000 419.833
29.52000 423.359
29.69000 409.189
29.86000 425.389
30.03000 441.746
30.20000 434.585
30.37000 428.798
30.54000 395.205
30.71000 422.305
30.88000 437.972
31.05000 564.355
31.22000 1371.317
31.39000 2829.176
31.56000 1633.851
31.73000 572.201
31.90000 419.552
32.07000 414.767
32.24000 386.925
32.41000 397.269
32.58000 396.746
32.75000 372.581
32.92000 369.038
33.09000 375.385
33.26000 341.339
33.43000 350.050
33.60000 327.533
33.77000 326.878
33.94000 332.580
34.11000 349.110
34.28000 353.625
34.45000 366.534
34.62000 361.380
34.79000 352.751
34.96000 331.407
35.13000 322.375
35.30000 320.173
35.47000 310.367
35.64000 286.792
35.81000 314.189
35.98000 312.604
36.15000 289.840
36.32000 294.220
36.49000 300.678
36.66000 300.904
36.83000 297.351
37.00000 313.556
37.17000 281.090
37.34000 302.156
37.51000 297.043
37.68000 284.836
37.85000 292.738
38.02000 304.100
38.19000 314.846
38.36000 338.994
38.53000 519.599
38.70000 1079.731
38.87000 890.122
39.04000 389.881
39.21000 297.294
39.38000 279.343
39.55000 285.057
39.72000 267.175
39.89000 271.093
40.06000 267.892
40.23000 257.339
40.40000 245.746
40.57000 262.043
40.74000 240.490
40.91000 248.318
41.08000 248.592
41.25000 251.029
41.42000 244.341
41.59000 236.347
41.76000 231.685
41.93000 229.868
42.10000 234.234
42.27000 236.509
42.44000 240.209
42.61000 235.851
42.78000 235.238
42.95000 217.520
43.12000 223.290
43.29000 223.765
43.46000 218.112
43.63000 239.840
43.80000 229.608
43.97000 216.173
44.14000 216.203
44.31000 233.070
44.48000 218.793
44.65000 224.167
44.82000 248.020
44.99000 281.879
45.16000 299.943
45.33000 272.365
45.50000 243.021
45.67000 209.841
45.84000 216.209
46.01000 208.731
46.18000 203.210
46.35000 202.537
46.52000 201.515
46.69000 190.843
46.86000 191.585
47.03000 188.850
47.20000 202.363
47.37000 185.389
47.54000 189.103
47.71000 184.387
47.88000 191.734
48.05000 192.517
48.22000 180.787
48.39000 186.460
48.56000 185.496
48.73000 185.700
48.90000 176.878
49.07000 186.945
49.24000 183.097
49.41000 177.788
49.58000 167.190
49.75000 175.666
49.92000 173.237
50.09000 168.556
50.26000 168.096
50.43000 184.406
50.60000 216.022
50.77000 242.710
50.94000 220.731
51.11000 169.149
51.28000 162.624
51.45000 150.361
51.62000 157.137
51.79000 159.086
51.96000 170.875
52.13000 160.136
52.30000 165.073
52.47000 169.171
52.64000 159.196
52.81000 152.527
52.98000 160.322
53.15000 163.881
53.32000 158.192
53.49000 154.710
53.66000 166.126
53.83000 154.304
54.00000 151.012
54.17000 158.278
54.34000 148.503
54.51000 149.882
54.68000 159.318
54.85000 136.354
55.02000 161.180
55.19000 167.463
55.36000 175.907
55.53000 188.930
55.70000 293.776
55.87000 545.828
56.04000 578.986
56.21000 360.526
56.38000 199.102
56.55000 168.476
56.72000 157.378
56.89000 142.846
57.06000 140.344
57.23000 146.895
57.40000 144.487
57.57000 145.120
57.74000 138.395
57.91000 138.326
58.08000 149.252
58.25000 132.561
58.42000 144.252
58.59000 135.862
58.76000 137.283
58.93000 131.657
59.10000 142.111
59.27000 138.255
59.44000 135.081
59.61000 132.167
59.78000 146.963
59.95000 132.366
60.12000 133.925
60.29000 134.145
60.46000 134.750
60.63000 134.868
60.80000 123.176
60.97000 124.257
61.14000 130.464
61.31000 132.944
61.48000 137.373
61.65000 240.202
61.82000 197.694
61.99000 142.666
62.16000 139.060
62.33000 141.139
62.50000 144.945
62.67000 135.293
62.84000 138.349
63.01000 147.166
63.18000 147.567
63.35000 139.913
63.52000 144.530
63.69000 135.001
63.86000 148.267
64.03000 147.010
64.20000 160.702
64.37000 155.389
64.54000 161.659
64.71000 173.360
64.88000 180.461
65.05000 183.892
65.22000 213.712
65.39000 287.132
65.56000 348.936
65.73000 554.982
65.90000 925.557
66.07000 350.934
66.24000 278.353
66.41000 384.364
66.58000 318.915
66.75000 297.993
66.92000 312.005
67.09000 345.997
67.26000 329.819
67.43000 389.677
67.60000 419.168
67.77000 435.758
67.94000 462.720
68.11000 491.274
68.28000 580.759
68.45000 655.139
68.62000 881.615
68.79000 1567.147
68.96000 7675.504
69.13000 47029.418
69.30000 29482.213
69.47000 7948.791
69.64000 1133.073
69.81000 786.474
69.98000 633.106
70.00000 630.743

File: BTO_Mapping_Theta2Theta_30-09-2025_001_27_-16-180_11-756.xy
20.00000 567.209
20.17000 557.000
20.34000 554.592
20.51000 546.333
20.68000 551.657
20.85000 556.876
21.02000 568.131
21.19000 550.037
21.36000 556.317
21.53000 535.400
21.70000 541.717
21.87000 558.147
22.04000 660.792
22.21000 625.328
22.38000 550.150
22.55000 549.984
22.72000 524.358
22.89000 507.255
23.06000 513.015
23.23000 527.836
23.40000 510.747
23.57000 502.190
23.74000 521.843
23.91000 538.565
24.08000 530.618
24.25000 519.330
24.42000 484.722
24.59000 482.351
24.76000 466.185
24.93000 479.859
25.10000 490.037
25.27000 479.848
25.44000 485.319
25.61000 456.653
25.78000 457.006
25.95000 483.173
26.12000 440.422
26.29000 454.922
26.46000 452.808
26.63000 466.347
26.80000 463.672
26.97000 454.265
27.14000 437.985
27.31000 442.733
27.48000 439.015
27.65000 442.726
27.82000 438.901
27.99000 456.241
28.16000 439.944
28.33000 422.039
28.50000 422.611
28.67000 410.314
28.84000 414.894
29.01000 409.787
29.18000 412.564
29.35000 414.166
29.52000 419.083
29.69000 416.288
29.86000 410.794
30.03000 431.854
30.20000 419.448
30.37000 432.638
30.54000 413.505
30.71000 423.319
30.88000 465.835
31.05000 569.470
31.22000 1479.202
31.39000 3059.785
31.56000 1737.348
31.73000 590.949
31.90000 415.587
32.07000 406.575
32.24000 403.645
32.41000 387.572
32.58000 387.280
32.75000 388.973
32.92000 357.835
33.09000 373.256
33.26000 359.055
33.43000 344.498
33.60000 349.796
33.77000 342.039
33.94000 355.392
34.11000 342.142
34.28000 347.050
34.45000 352.789
34.62000 340.154
34.79000 343.833
34.96000 334.366
35.13000 323.421
35.30000 323.790
35.47000 321.431
35.64000 315.358
35.81000 310.278
35.98000 307.579
36.15000 308.383
36.32000 304.512
36.49000 304.795
36.66000 302.407
36.83000 298.773
37.00000 297.680
37.17000 304.593
37.34000 298.305
37.51000 289.108
37.68000 309.295
37.85000 283.030
38.02000 297.547
38.19000 301.734
38.36000 321.336
38.53000 493.513
38.70000 990.700
38.87000 835.020
39.04000 380.598
39.21000 288.712
39.38000 265.894
39.55000 263.201
39.72000 271.133
39.89000 275.465
40.06000 267.842
40.23000 264.042
40.40000 251.829
40.57000 242.309
40.74000 248.691
40.91000 258.080
41.08000 259.027
41.25000 248.152
41.42000 246.706
41.59000 235.058
41.76000 235.513
41.93000 254.363
42.10000 241.869
42.27000 241.632
42.44000 239.375
42.61000 233.467
42.78000 240.200
42.95000 233.232
43.12000 219.813
43.29000 228.540
43.46000 220.294
43.63000 213.465
43.80000 220.752
43.97000 228.892
44.14000 218.880
44.31000 230.154
44.48000 227.519
44.65000 244.487
44.82000 257.720
44.99000 301.817
45.16000 330.067
45.33000 272.411
45.50000 235.457
45.67000 221.066
45.84000 204.788
46.01000 211.824
46.18000 212.315
46.35000 199.860
46.52000 202.618
46.69000 194.930
46.86000 205.228
47.03000 200.196
47.20000 191.140
47.37000 198.551
47.54000 187.137
47.71000 193.700
47.88000 182.374
48.05000 188.457
48.22000 178.968
48.39000 182.400
48.56000 182.924
48.73000 178.538
48.90000 184.335
49.07000 179.200
49.24000 176.315
49.41000 185.835
49.58000 181.240
49.75000 190.964
49.92000 188.106
50.09000 177.895
50.26000 186.211
50.43000 185.210
50.60000 243.353
50.77000 243.352
50.94000 218.739
51.11000 176.921
51.28000 151.919
51.45000 178.720
51.62000 160.538
51.79000 166.753
51.96000 163.596
52.13000 161.267
52.30000 159.350
52.47000 166.414
52.64000 164.570
52.81000 154.498
52.98000 150.634
53.15000 162.533
53.32000 159.661
53.49000 165.908
53.66000 158.754
53.83000 158.437
54.00000 160.941
54.17000 153.172
54.34000 152.058
54.51000 157.148
54.68000 162.009
54.85000 157.788
55.02000 155.948
55.19000 156.951
55.36000 174.417
55.53000 194.951
55.70000 290.286
55.87000 549.105
56.04000 610.816
56.21000 367.481
56.38000 212.295
56.55000 163.642
56.72000 153.341
56.89000 145.264
57.06000 152.263
57.23000 145.318
57.40000 139.500
57.57000 145.803
57.74000 141.324
57.91000 146.775
58.08000 145.728
58.25000 136.998
58.42000 139.394
58.59000 142.745
58.76000 142.399
58.93000 138.544
59.10000 142.298
59.27000 125.418
59.44000 133.070
59.61000 141.577
59.78000 138.787
59.95000 133.442
60.12000 135.827
60.29000 135.199
60.46000 137.342
60.63000 137.817
60.80000 138.456
60.97000 126.587
61.14000 133.928
61.31000 143.113
61.48000 140.789
61.65000 232.912
61.82000 188.860
61.99000 147.392
62.16000 150.651
62.33000 140.348
62.50000 150.357
62.67000 133.014
62.84000 140.234
63.01000 150.222
63.18000 154.492
63.35000 141.977
63.52000 149.150
63.69000 151.201
63.86000 155.254
64.03000 138.507
64.20000 164.478
64.37000 162.331
64.54000 167.826
64.71000 166.965
64.88000 183.925
65.05000 187.246
65.22000 212.342
65.39000 300.154
65.56000 359.858
65.73000 544.828
65.90000 924.153
66.07000 358.646
66.24000 279.947
66.41000 403.971
66.58000 318.814
66.75000 296.818
66.92000 315.106
67.09000 339.580
67.26000 358.937
67.43000 368.314
67.60000 402.646
67.77000 440.248
67.94000 482.353
68.11000 513.292
68.28000 573.760
68.45000 655.126
68.62000 886.673
68.79000 1593.841
68.96000 7327.294
69.13000 46552.211
69.30000 29460.338
69.47000 8288.889
69.64000 1134.588
69.81000 776.900
69.98000 635.081
70.00000 627.532