Folder: Master-Thesis/XRD/XRD/30-09-2025 Dep 1/XY Data (part 2)

File: BTO_Mapping_Theta2Theta_30-09-2025_001_10_6-691_7-431.xy
20.00000 574.261
20.17000 552.554
20.34000 561.370
20.51000 543.474
20.68000 566.236
20.85000 542.594
21.02000 548.836
21.19000 563.176
21.36000 537.737
21.53000 556.692
21.70000 556.238
21.87000 611.896
22.04000 763.541
22.21000 639.799
22.38000 556.614
22.55000 526.892
22.72000 519.887
22.89000 512.937
23.06000 526.358
23.23000 526.149
23.40000 507.823
23.57000 510.420
23.74000 519.128
23.91000 518.723
24.08000 530.081
24.25000 534.825
24.42000 497.035
24.59000 496.950
24.76000 493.861
24.93000 483.787
25.10000 483.308
25.27000 486.605
25.44000 473.629
25.61000 469.301
25.78000 472.920
25.95000 446.584
26.12000 464.775
26.29000 462.912
26.46000 461.008
26.63000 425.290
26.80000 452.486
26.97000 447.623
27.14000 448.479
27.31000 452.765
27.48000 449.721
27.65000 456.649
27.82000 444.586
27.99000 446.298
28.16000 431.201
28.33000 416.116
28.50000 447.123
28.67000 418.568
28.84000 418.871
29.01000 413.218
29.18000 421.299
29.35000 405.632
29.52000 409.388
29.69000 407.675
29.86000 424.697
30.03000 466.801
30.20000 435.552
30.37000 442.255
30.54000 452.607
30.71000 443.730
30.88000 478.930
31.05000 663.472
31.22000 1920.172
31.39000 3582.705
31.56000 1648.666
31.73000 568.847
31.90000 441.645
32.07000 411.558
32.24000 389.938
32.41000 388.721
32.58000 381.899
32.75000 362.152
32.92000 396.315
33.09000 423.207
33.26000 336.728
33.43000 359.830
33.60000 360.541
33.77000 352.573
33.94000 333.246
34.11000 343.144
34.28000 351.183
34.45000 344.464
34.62000 337.872
34.79000 324.314
34.96000 339.146
35.13000 323.040
35.30000 315.235
35.47000 314.603
35.64000 323.317
35.81000 288.882
35.98000 305.939
36.15000 305.107
36.32000 303.667
36.49000 309.389
36.66000 305.642
36.83000 294.323
37.00000 277.126
37.17000 315.047
37.34000 300.804
37.51000 298.885
37.68000 296.795
37.85000 292.359
38.02000 293.949
38.19000 294.208
38.36000 347.073
38.53000 528.206
38.70000 892.297
38.87000 666.312
39.04000 330.055
39.21000 285.140
39.38000 264.733
39.55000 266.604
39.72000 273.988
39.89000 263.748
40.06000 259.629
40.23000 251.106
40.40000 247.490
40.57000 254.355
40.74000 248.152
40.91000 247.989
41.08000 251.639
41.25000 254.773
41.42000 230.233
41.59000 236.841
41.76000 261.417
41.93000 235.300
42.10000 236.023
42.27000 252.347
42.44000 248.015
42.61000 242.017
42.78000 240.669
42.95000 234.723
43.12000 227.619
43.29000 232.076
43.46000 236.446
43.63000 215.497
43.80000 226.565
43.97000 232.206
44.14000 212.629
44.31000 224.558
44.48000 230.200
44.65000 247.637
44.82000 280.269
44.99000 394.753
45.16000 390.593
45.33000 281.375
45.50000 250.615
45.67000 213.538
45.84000 215.735
46.01000 214.930
46.18000 210.606
46.35000 207.480
46.52000 200.139
46.69000 210.330
46.86000 199.756
47.03000 190.171
47.20000 183.400
47.37000 186.533
47.54000 185.565
47.71000 195.817
47.88000 188.677
48.05000 199.691
48.22000 182.069
48.39000 177.166
48.56000 190.195
48.73000 173.694
48.90000 178.449
49.07000 183.197
49.24000 182.463
49.41000 181.566
49.58000 171.165
49.75000 179.115
49.92000 166.274
50.09000 166.590
50.26000 185.159
50.43000 196.572
50.60000 242.196
50.77000 256.353
50.94000 211.421
51.11000 180.411
51.28000 166.745
51.45000 181.262
51.62000 179.318
51.79000 174.309
51.96000 162.807
52.13000 170.143
52.30000 165.282
52.47000 166.654
52.64000 154.533
52.81000 160.726
52.98000 156.325
53.15000 167.175
53.32000 150.194
53.49000 155.939
53.66000 162.643
53.83000 149.144
54.00000 158.332
54.17000 154.959
54.34000 147.344
54.51000 142.989
54.68000 161.761
54.85000 156.652
55.02000 159.954
55.19000 164.720
55.36000 168.465
55.53000 210.367
55.70000 332.027
55.87000 617.345
56.04000 577.933
56.21000 319.599
56.38000 192.499
56.55000 170.661
56.72000 156.799
56.89000 147.323
57.06000 148.178
57.23000 143.568
57.40000 156.322
57.57000 147.480
57.74000 152.415
57.91000 139.488
58.08000 136.469
58.25000 146.496
58.42000 126.083
58.59000 137.858
58.76000 135.577
58.93000 140.023
59.10000 135.083
59.27000 130.807
59.44000 132.894
59.61000 141.142
59.78000 128.763
59.95000 145.542
60.12000 142.275
60.29000 130.625
60.46000 128.290
60.63000 137.172
60.80000 131.257
60.97000 138.771
61.14000 137.144
61.31000 125.831
61.48000 157.644
61.65000 291.753
61.82000 204.630
61.99000 142.015
62.16000 139.858
62.33000 141.926
62.50000 140.225
62.67000 142.089
62.84000 141.249
63.01000 144.203
63.18000 139.596
63.35000 143.478
63.52000 144.257
63.69000 151.014
63.86000 162.221
64.03000 157.781
64.20000 166.060
64.37000 157.978
64.54000 165.492
64.71000 173.360
64.88000 193.914
65.05000 202.952
65.22000 233.415
65.39000 339.847
65.56000 416.595
65.73000 697.388
65.90000 1133.599
66.07000 375.542
66.24000 311.153
66.41000 445.854
66.58000 367.003
66.75000 309.402
66.92000 327.139
67.09000 376.982
67.26000 375.867
67.43000 399.865
67.60000 445.013
67.77000 462.495
67.94000 506.326
68.11000 567.099
68.28000 649.796
68.45000 767.833
68.62000 1048.824
68.79000 1968.970
68.96000 12912.742
69.13000 63624.426
69.30000 37424.098
69.47000 8742.729
69.64000 1281.709
69.81000 865.501
69.98000 688.510
70.00000 705.928

File: BTO_Mapping_Theta2Theta_30-09-2025_001_11_13-383_14-863.xy
20.00000 586.493
20.17000 551.544
20.34000 579.023
20.51000 549.831
20.68000 542.014
20.85000 551.803
21.02000 568.628
21.19000 562.357
21.36000 555.284
21.53000 533.477
21.70000 555.222
21.87000 596.334
22.04000 702.522
22.21000 636.401
22.38000 547.695
22.55000 527.212
22.72000 508.712
22.89000 507.638
23.06000 512.357
23.23000 502.266
23.40000 488.555
23.57000 507.737
23.74000 508.197
23.91000 503.023
24.08000 520.116
24.25000 517.810
24.42000 500.826
24.59000 490.329
24.76000 487.254
24.93000 483.689
25.10000 444.270
25.27000 473.473
25.44000 470.719
25.61000 490.731
25.78000 476.326
25.95000 479.986
26.12000 433.980
26.29000 467.820
26.46000 439.858
26.63000 449.197
26.80000 445.290
26.97000 445.069
27.14000 439.669
27.31000 446.089
27.48000 447.715
27.65000 420.500
27.82000 440.505
27.99000 419.509
28.16000 427.219
28.33000 428.534
28.50000 417.212
28.67000 421.599
28.84000 412.587
29.01000 414.534
29.18000 396.678
29.35000 398.139
29.52000 422.852
29.69000 427.939
29.86000 416.126
30.03000 448.113
30.20000 443.765
30.37000 430.052
30.54000 432.853
30.71000 428.601
30.88000 470.753
31.05000 624.138
31.22000 1757.168
31.39000 3379.042
31.56000 1685.636
31.73000 572.794
31.90000 424.391
32.07000 413.825
32.24000 404.107
32.41000 380.154
32.58000 390.590
32.75000 370.674
32.92000 377.128
33.09000 367.942
33.26000 355.791
33.43000 351.782
33.60000 335.324
33.77000 339.537
33.94000 347.085
34.11000 349.955
34.28000 321.282
34.45000 353.547
34.62000 347.021
34.79000 335.517
34.96000 325.070
35.13000 313.483
35.30000 322.349
35.47000 303.507
35.64000 306.880
35.81000 293.013
35.98000 307.276
36.15000 304.700
36.32000 310.546
36.49000 301.400
36.66000 290.125
36.83000 309.702
37.00000 303.218
37.17000 305.716
37.34000 288.382
37.51000 308.681
37.68000 281.039
37.85000 304.114
38.02000 293.841
38.19000 302.877
38.36000 344.566
38.53000 514.956
38.70000 957.092
38.87000 713.135
39.04000 345.871
39.21000 300.723
39.38000 277.725
39.55000 268.054
39.72000 256.770
39.89000 266.715
40.06000 265.725
40.23000 255.719
40.40000 265.087
40.57000 254.677
40.74000 259.458
40.91000 251.375
41.08000 250.422
41.25000 240.217
41.42000 246.394
41.59000 230.388
41.76000 234.663
41.93000 248.312
42.10000 235.258
42.27000 234.234
42.44000 231.966
42.61000 239.709
42.78000 232.658
42.95000 217.281
43.12000 233.270
43.29000 227.154
43.46000 235.591
43.63000 234.424
43.80000 227.444
43.97000 242.253
44.14000 232.858
44.31000 228.370
44.48000 225.533
44.65000 235.185
44.82000 260.199
44.99000 337.702
45.16000 360.028
45.33000 288.491
45.50000 249.284
45.67000 223.374
45.84000 200.143
46.01000 206.079
46.18000 204.833
46.35000 211.531
46.52000 211.546
46.69000 206.319
46.86000 207.965
47.03000 204.171
47.20000 196.386
47.37000 200.976
47.54000 189.258
47.71000 183.171
47.88000 183.663
48.05000 189.753
48.22000 185.805
48.39000 181.091
48.56000 184.199
48.73000 187.626
48.90000 181.608
49.07000 189.698
49.24000 181.289
49.41000 179.476
49.58000 179.686
49.75000 156.325
49.92000 167.133
50.09000 170.445
50.26000 172.301
50.43000 188.356
50.60000 252.992
50.77000 253.021
50.94000 208.893
51.11000 180.855
51.28000 168.647
51.45000 166.452
51.62000 163.177
51.79000 156.933
51.96000 166.574
52.13000 157.728
52.30000 170.492
52.47000 143.979
52.64000 164.502
52.81000 152.642
52.98000 162.654
53.15000 164.880
53.32000 155.415
53.49000 164.990
53.66000 160.683
53.83000 154.516
54.00000 156.988
54.17000 162.250
54.34000 152.867
54.51000 147.632
54.68000 159.038
54.85000 169.845
55.02000 151.288
55.19000 161.782
55.36000 176.626
55.53000 193.969
55.70000 306.271
55.87000 586.941
56.04000 607.339
56.21000 347.977
56.38000 198.058
56.55000 156.510
56.72000 153.592
56.89000 157.589
57.06000 143.491
57.23000 139.703
57.40000 141.789
57.57000 145.602
57.74000 152.518
57.91000 137.894
58.08000 136.722
58.25000 146.742
58.42000 134.402
58.59000 132.989
58.76000 143.075
58.93000 134.845
59.10000 150.309
59.27000 128.737
59.44000 138.301
59.61000 140.203
59.78000 135.594
59.95000 138.057
60.12000 133.971
60.29000 135.258
60.46000 128.949
60.63000 128.656
60.80000 149.142
60.97000 130.649
61.14000 127.512
61.31000 129.720
61.48000 153.814
61.65000 249.088
61.82000 191.027
61.99000 135.307
62.16000 135.574
62.33000 143.081
62.50000 137.918
62.67000 156.659
62.84000 141.333
63.01000 135.343
63.18000 146.683
63.35000 148.728
63.52000 154.054
63.69000 149.533
63.86000 141.073
64.03000 162.964
64.20000 147.914
64.37000 144.700
64.54000 172.601
64.71000 166.584
64.88000 178.695
65.05000 194.741
65.22000 225.973
65.39000 294.801
65.56000 403.456
65.73000 635.820
65.90000 956.985
66.07000 338.560
66.24000 282.356
66.41000 400.230
66.58000 313.808
66.75000 297.009
66.92000 324.211
67.09000 330.892
67.26000 353.250
67.43000 379.535
67.60000 411.647
67.77000 445.528
67.94000 483.559
68.11000 522.949
68.28000 572.730
68.45000 672.974
68.62000 917.186
68.79000 1727.675
68.96000 10764.636
69.13000 49009.000
69.30000 28686.967
69.47000 6461.238
69.64000 1087.526
69.81000 762.742
69.98000 647.217
70.00000 627.001

File: BTO_Mapping_Theta2Theta_30-09-2025_001_12_20-074_22-294.xy
20.00000 556.393
20.17000 566.548
20.34000 544.336
20.51000 589.912
20.68000 571.068
20.85000 576.645
21.02000 549.119
21.19000 555.803
21.36000 540.516
21.53000 543.276
21.70000 533.603
21.87000 595.125
22.04000 667.416
22.21000 595.709
22.38000 550.536
22.55000 540.643
22.72000 524.165
22.89000 538.834
23.06000 534.483
23.23000 532.783
23.40000 516.150
23.57000 511.426
23.74000 501.267
23.91000 523.895
24.08000 513.880
24.25000 495.689
24.42000 511.950
24.59000 512.622
24.76000 475.396
24.93000 475.982
25.10000 471.732
25.27000 479.997
25.44000 477.942
25.61000 473.097
25.78000 457.688
25.95000 444.224
26.12000 463.206
26.29000 449.382
26.46000 456.475
26.63000 454.164
26.80000 457.730
26.97000 443.586
27.14000 422.387
27.31000 441.045
27.48000 436.544
27.65000 444.827
27.82000 434.462
27.99000 422.496
28.16000 428.673
28.33000 452.700
28.50000 425.841
28.67000 430.393
28.84000 417.946
29.01000 412.033
29.18000 421.087
29.35000 409.179
29.52000 408.316
29.69000 431.396
29.86000 428.757
30.03000 438.066
30.20000 439.684
30.37000 404.390
30.54000 418.662
30.71000 428.819
30.88000 456.370
31.05000 586.985
31.22000 1607.767
31.39000 3061.882
31.56000 1615.334
31.73000 584.732
31.90000 433.925
32.07000 417.428
32.24000 414.637
32.41000 389.460
32.58000 368.727
32.75000 364.120
32.92000 378.975
33.09000 361.813
33.26000 362.905
33.43000 334.307
33.60000 328.058
33.77000 343.485
33.94000 329.997
34.11000 329.987
34.28000 353.082
34.45000 344.478
34.62000 358.451
34.79000 338.251
34.96000 330.050
35.13000 326.644
35.30000 306.491
35.47000 311.504
35.64000 300.226
35.81000 311.522
35.98000 303.823
36.15000 302.352
36.32000 294.379
36.49000 302.316
36.66000 297.737
36.83000 302.040
37.00000 314.292
37.17000 304.941
37.34000 288.594
37.51000 283.019
37.68000 288.497
37.85000 295.017
38.02000 291.304
38.19000 304.375
38.36000 330.693
38.53000 525.565
38.70000 1016.288
38.87000 799.994
39.04000 357.053
39.21000 280.731
39.38000 280.034
39.55000 287.851
39.72000 269.674
39.89000 260.252
40.06000 256.551
40.23000 255.874
40.40000 257.227
40.57000 247.278
40.74000 239.931
40.91000 245.686
41.08000 240.227
41.25000 250.605
41.42000 238.806
41.59000 242.703
41.76000 224.742
41.93000 238.661
42.10000 247.006
42.27000 232.684
42.44000 234.837
42.61000 225.339
42.78000 235.130
42.95000 233.945
43.12000 221.238
43.29000 230.312
43.46000 215.780
43.63000 223.794
43.80000 212.183
43.97000 227.102
44.14000 225.249
44.31000 225.597
44.48000 218.988
44.65000 234.764
44.82000 254.673
44.99000 278.146
45.16000 292.864
45.33000 265.590
45.50000 236.085
45.67000 222.274
45.84000 203.190
46.01000 207.393
46.18000 211.983
46.35000 201.060
46.52000 206.163
46.69000 204.356
46.86000 213.132
47.03000 196.094
47.20000 199.695
47.37000 200.171
47.54000 185.754
47.71000 188.887
47.88000 185.452
48.05000 184.934
48.22000 195.511
48.39000 190.032
48.56000 184.683
48.73000 177.376
48.90000 188.404
49.07000 190.748
49.24000 178.507
49.41000 180.719
49.58000 176.698
49.75000 175.186
49.92000 186.312
50.09000 173.617
50.26000 184.223
50.43000 190.483
50.60000 220.281
50.77000 255.789
50.94000 208.322
51.11000 182.636
51.28000 160.895
51.45000 168.063
51.62000 162.899
51.79000 161.110
51.96000 168.941
52.13000 155.357
52.30000 160.428
52.47000 153.972
52.64000 166.833
52.81000 152.738
52.98000 154.930
53.15000 165.625
53.32000 157.195
53.49000 160.905
53.66000 153.513
53.83000 167.945
54.00000 159.936
54.17000 160.349
54.34000 162.085
54.51000 164.661
54.68000 162.413
54.85000 156.635
55.02000 159.053
55.19000 160.535
55.36000 169.663
55.53000 201.769
55.70000 297.466
55.87000 566.013
56.04000 600.171
56.21000 331.702
56.38000 189.417
56.55000 158.895
56.72000 154.942
56.89000 156.645
57.06000 137.635
57.23000 149.787
57.40000 145.754
57.57000 137.370
57.74000 134.459
57.91000 153.332
58.08000 141.705
58.25000 134.510
58.42000 144.460
58.59000 140.676
58.76000 142.432
58.93000 135.824
59.10000 130.487
59.27000 135.150
59.44000 128.660
59.61000 129.823
59.78000 125.682
59.95000 135.690
60.12000 138.878
60.29000 129.655
60.46000 138.854
60.63000 137.800
60.80000 138.122
60.97000 131.483
61.14000 137.219
61.31000 135.643
61.48000 141.620
61.65000 242.093
61.82000 193.247
61.99000 145.395
62.16000 136.964
62.33000 149.109
62.50000 144.334
62.67000 142.403
62.84000 147.817
63.01000 141.449
63.18000 147.492
63.35000 157.273
63.52000 137.661
63.69000 152.707
63.86000 154.069
64.03000 158.504
64.20000 163.683
64.37000 162.090
64.54000 165.038
64.71000 170.689
64.88000 182.848
65.05000 178.644
65.22000 228.506
65.39000 282.413
65.56000 367.455
65.73000 601.425
65.90000 888.857
66.07000 329.420
66.24000 290.488
66.41000 397.186
66.58000 312.073
66.75000 295.088
66.92000 318.363
67.09000 329.381
67.26000 331.228
67.43000 389.852
67.60000 404.477
67.77000 442.457
67.94000 465.629
68.11000 526.796
68.28000 569.480
68.45000 670.120
68.62000 948.102
68.79000 1607.754
68.96000 11080.354
69.13000 47594.844
69.30000 27358.801
69.47000 5954.277
69.64000 1079.809
69.81000 778.257
69.98000 663.081
70.00000 628.583

File: BTO_Mapping_Theta2Theta_30-09-2025_001_14_3-090_9-511.xy
20.00000 568.523
20.17000 544.941
20.34000 572.126
20.51000 568.440
20.68000 557.789
20.85000 551.826
21.02000 547.337
21.19000 539.137
21.36000 558.046
21.53000 563.324
21.70000 561.454
21.87000 620.939
22.04000 697.167
22.21000 651.208
22.38000 556.997
22.55000 536.520
22.72000 525.700
22.89000 525.513
23.06000 501.498
23.23000 522.196
23.40000 506.573
23.57000 522.643
23.74000 508.376
23.91000 534.163
24.08000 530.146
24.25000 530.035
24.42000 505.260
24.59000 500.840
24.76000 504.903
24.93000 473.795
25.10000 485.510
25.27000 471.215
25.44000 476.849
25.61000 470.199
25.78000 467.737
25.95000 462.466
26.12000 477.920
26.29000 448.694
26.46000 461.768
26.63000 455.615
26.80000 456.449
26.97000 456.518
27.14000 449.377
27.31000 431.702
27.48000 451.739
27.65000 450.121
27.82000 448.446
27.99000 408.116
28.16000 428.232
28.33000 438.599
28.50000 409.758
28.67000 436.255
28.84000 421.089
29.01000 430.460
29.18000 406.908
29.35000 404.762
29.52000 418.930
29.69000 402.867
29.86000 431.207
30.03000 466.951
30.20000 447.334
30.37000 432.605
30.54000 432.171
30.71000 441.346
30.88000 461.883
31.05000 645.665
31.22000 1800.488
31.39000 3459.825
31.56000 1651.365
31.73000 579.437
31.90000 439.556
32.07000 410.311
32.24000 404.438
32.41000 396.498
32.58000 372.934
32.75000 374.004
32.92000 386.900
33.09000 392.044
33.26000 342.876
33.43000 341.582
33.60000 340.380
33.77000 340.903
33.94000 348.318
34.11000 329.175
34.28000 360.935
34.45000 354.718
34.62000 327.218
34.79000 330.865
34.96000 331.259
35.13000 324.118
35.30000 315.739
35.47000 315.498
35.64000 306.039
35.81000 315.160
35.98000 318.803
36.15000 299.103
36.32000 296.442
36.49000 309.483
36.66000 278.745
36.83000 305.631
37.00000 288.755
37.17000 288.162
37.34000 294.628
37.51000 306.896
37.68000 288.816
37.85000 290.405
38.02000 298.944
38.19000 303.225
38.36000 321.776
38.53000 539.007
38.70000 926.422
38.87000 690.266
39.04000 345.919
39.21000 288.180
39.38000 292.474
39.55000 276.935
39.72000 259.439
39.89000 272.273
40.06000 271.056
40.23000 250.514
40.40000 257.920
40.57000 255.472
40.74000 236.486
40.91000 244.636
41.08000 244.816
41.25000 251.671
41.42000 243.198
41.59000 233.388
41.76000 248.262
41.93000 235.378
42.10000 245.999
42.27000 250.502
42.44000 246.468
42.61000 234.552
42.78000 233.113
42.95000 238.066
43.12000 232.772
43.29000 218.134
43.46000 235.098
43.63000 230.015
43.80000 219.091
43.97000 227.318
44.14000 231.206
44.31000 229.316
44.48000 224.559
44.65000 233.208
44.82000 276.767
44.99000 337.037
45.16000 388.159
45.33000 287.914
45.50000 233.814
45.67000 220.527
45.84000 213.376
46.01000 207.603
46.18000 213.691
46.35000 204.435
46.52000 202.595
46.69000 199.349
46.86000 193.063
47.03000 212.736
47.20000 195.012
47.37000 188.687
47.54000 183.613
47.71000 192.222
47.88000 183.065
48.05000 195.844
48.22000 192.495
48.39000 187.402
48.56000 189.098
48.73000 184.378
48.90000 188.353
49.07000 195.737
49.24000 185.935
49.41000 177.600
49.58000 179.292
49.75000 171.843
49.92000 178.805
50.09000 176.418
50.26000 186.098
50.43000 204.821
50.60000 247.743
50.77000 253.599
50.94000 214.187
51.11000 190.798
51.28000 168.555
51.45000 165.098
51.62000 170.996
51.79000 156.564
51.96000 161.840
52.13000 162.443
52.30000 150.313
52.47000 154.684
52.64000 157.088
52.81000 153.880
52.98000 155.063
53.15000 162.440
53.32000 156.474
53.49000 158.160
53.66000 158.234
53.83000 162.069
54.00000 154.936
54.17000 161.710
54.34000 152.538
54.51000 151.041
54.68000 169.518
54.85000 159.302
55.02000 156.919
55.19000 163.624
55.36000 163.500
55.53000 196.504
55.70000 316.863
55.87000 581.024
56.04000 595.183
56.21000 327.469
56.38000 201.689
56.55000 172.281
56.72000 150.160
56.89000 143.214
57.06000 156.452
57.23000 142.302
57.40000 156.835
57.57000 148.667
57.74000 135.603
57.91000 148.162
58.08000 154.310
58.25000 138.498
58.42000 138.470
58.59000 141.039
58.76000 142.122
58.93000 127.722
59.10000 131.228
59.27000 142.328
59.44000 139.572
59.61000 140.711
59.78000 128.523
59.95000 134.855
60.12000 128.815
60.29000 138.195
60.46000 129.123
60.63000 124.951
60.80000 138.615
60.97000 136.533
61.14000 137.548
61.31000 129.360
61.48000 140.892
61.65000 256.118
61.82000 192.760
61.99000 146.163
62.16000 141.612
62.33000 138.695
62.50000 141.341
62.67000 135.607
62.84000 122.184
63.01000 141.404
63.18000 139.631
63.35000 145.411
63.52000 139.813
63.69000 151.702
63.86000 147.881
64.03000 161.874
64.20000 148.583
64.37000 176.588
64.54000 161.837
64.71000 169.308
64.88000 174.182
65.05000 188.085
65.22000 229.663
65.39000 306.551
65.56000 408.338
65.73000 650.703
65.90000 974.516
66.07000 343.087
66.24000 289.367
66.41000 407.122
66.58000 333.443
66.75000 294.768
66.92000 309.882
67.09000 363.147
67.26000 378.616
67.43000 383.086
67.60000 414.581
67.77000 466.196
67.94000 477.767
68.11000 529.088
68.28000 605.441
68.45000 687.420
68.62000 922.924
68.79000 1751.373
68.96000 10354.048
69.13000 53177.039
69.30000 31613.051
69.47000 7641.849
69.64000 1175.740
69.81000 822.160
69.98000 652.031
70.00000 661.697

File: BTO_Mapping_Theta2Theta_30-09-2025_001_17_12-361_38-042.xy
20.00000 565.529
20.17000 565.764
20.34000 578.124
20.51000 551.057
20.68000 572.710
20.85000 574.796
21.02000 555.481
21.19000 551.503
21.36000 565.453
21.53000 555.549
21.70000 576.443
21.87000 611.875
22.04000 681.411
22.21000 634.164
22.38000 541.803
22.55000 530.403
22.72000 522.681
22.89000 537.139
23.06000 515.093
23.23000 511.517
23.40000 519.494
23.57000 514.582
23.74000 524.862
23.91000 564.028
24.08000 548.411
24.25000 518.618
24.42000 502.966
24.59000 499.130
24.76000 492.217
24.93000 475.868
25.10000 482.118
25.27000 482.511
25.44000 474.080
25.61000 471.797
25.78000 474.561
25.95000 474.965
26.12000 445.375
26.29000 464.832
26.46000 432.514
26.63000 444.633
26.80000 441.265
26.97000 423.056
27.14000 445.985
27.31000 442.073
27.48000 446.588
27.65000 453.004
27.82000 446.372
27.99000 432.135
28.16000 449.537
28.33000 414.008
28.50000 429.361
28.67000 418.377
28.84000 417.016
29.01000 415.495
29.18000 400.541
29.35000 402.236
29.52000 409.584
29.69000 406.389
29.86000 405.872
30.03000 425.692
30.20000 433.897
30.37000 411.483
30.54000 406.601
30.71000 409.204
30.88000 435.864
31.05000 521.988
31.22000 1075.057
31.39000 1809.953
31.56000 1130.167
31.73000 531.940
31.90000 416.511
32.07000 406.030
32.24000 398.968
32.41000 380.023
32.58000 380.376
32.75000 359.310
32.92000 356.995
33.09000 398.091
33.26000 363.597
33.43000 335.116
33.60000 346.405
33.77000 344.780
33.94000 349.219
34.11000 355.864
34.28000 366.005
34.45000 359.890
34.62000 355.275
34.79000 333.814
34.96000 340.733
35.13000 320.347
35.30000 302.835
35.47000 305.616
35.64000 321.184
35.81000 321.449
35.98000 305.997
36.15000 316.727
36.32000 301.994
36.49000 294.986
36.66000 307.302
36.83000 294.431
37.00000 311.501
37.17000 288.664
37.34000 294.025
37.51000 278.812
37.68000 298.478
37.85000 298.696
38.02000 318.054
38.19000 305.224
38.36000 321.892
38.53000 496.772
38.70000 945.836
38.87000 771.195
39.04000 384.802
39.21000 291.041
39.38000 291.997
39.55000 285.650
39.72000 275.296
39.89000 256.227
40.06000 257.883
40.23000 251.445
40.40000 256.292
40.57000 260.606
40.74000 242.572
40.91000 241.811
41.08000 249.653
41.25000 237.293
41.42000 243.053
41.59000 241.500
41.76000 237.376
41.93000 229.310
42.10000 246.051
42.27000 238.496
42.44000 253.795
42.61000 234.094
42.78000 236.699
42.95000 230.571
43.12000 241.545
43.29000 226.485
43.46000 229.421
43.63000 238.282
43.80000 216.715
43.97000 224.525
44.14000 212.612
44.31000 228.749
44.48000 236.728
44.65000 235.126
44.82000 263.362
44.99000 321.030
45.16000 338.271
45.33000 296.341
45.50000 245.852
45.67000 219.236
45.84000 215.533
46.01000 218.079
46.18000 198.978
46.35000 203.075
46.52000 199.369
46.69000 204.902
46.86000 204.710
47.03000 198.408
47.20000 188.537
47.37000 195.181
47.54000 185.548
47.71000 184.971
47.88000 193.388
48.05000 186.902
48.22000 168.559
48.39000 195.522
48.56000 184.847
48.73000 179.154
48.90000 180.181
49.07000 174.048
49.24000 185.123
49.41000 180.267
49.58000 185.202
49.75000 165.404
49.92000 168.409
50.09000 172.800
50.26000 178.846
50.43000 192.571
50.60000 211.125
50.77000 215.403
50.94000 206.285
51.11000 179.921
51.28000 148.415
51.45000 157.979
51.62000 166.777
51.79000 172.612
51.96000 167.318
52.13000 160.307
52.30000 166.583
52.47000 149.711
52.64000 155.647
52.81000 155.895
52.98000 164.367
53.15000 152.619
53.32000 158.571
53.49000 171.812
53.66000 160.240
53.83000 161.785
54.00000 157.287
54.17000 157.872
54.34000 161.207
54.51000 152.600
54.68000 165.560
54.85000 155.349
55.02000 154.482
55.19000 161.830
55.36000 162.237
55.53000 194.772
55.70000 298.827
55.87000 514.962
56.04000 524.617
56.21000 313.092
56.38000 205.516
56.55000 165.002
56.72000 157.111
56.89000 146.793
57.06000 156.194
57.23000 140.903
57.40000 143.236
57.57000 147.828
57.74000 140.525
57.91000 148.846
58.08000 139.692
58.25000 147.032
58.42000 132.949
58.59000 126.545
58.76000 139.752
58.93000 129.958
59.10000 143.309
59.27000 136.487
59.44000 122.281
59.61000 144.196
59.78000 132.484
59.95000 127.784
60.12000 134.515
60.29000 131.177
60.46000 134.663
60.63000 126.928
60.80000 122.275
60.97000 132.971
61.14000 134.365
61.31000 131.171
61.48000 149.292
61.65000 242.441
61.82000 192.576
61.99000 145.901
62.16000 149.262
62.33000 137.078
62.50000 150.477
62.67000 143.441
62.84000 141.336
63.01000 139.366
63.18000 156.989
63.35000 145.197
63.52000 143.027
63.69000 146.117
63.86000 159.546
64.03000 158.992
64.20000 151.432
64.37000 164.128
64.54000 155.425
64.71000 167.356
64.88000 179.593
65.05000 203.083
65.22000 197.647
65.39000 258.878
65.56000 297.658
65.73000 522.521
65.90000 931.643
66.07000 336.050
66.24000 284.884
66.41000 402.820
66.58000 326.516
66.75000 314.651
66.92000 331.712
67.09000 313.068
67.26000 357.137
67.43000 384.372
67.60000 401.943
67.77000 462.136
67.94000 489.234
68.11000 511.928
68.28000 584.066
68.45000 700.300
68.62000 910.644
68.79000 1694.774
68.96000 10000.614
69.13000 49114.691
69.30000 29095.877
69.47000 6992.706
69.64000 1147.645
69.81000 793.459
69.98000 650.315
70.00000 651.568