Folder: Master-Thesis/XRD/XRD/30-09-2025 Dep 1/XY Data (part 5)

File: BTO_Mapping_Theta2Theta_30-09-2025_001_37_-39-126_-8-316.xy
20.00000 560.056
20.17000 561.853
20.34000 560.283
20.51000 558.111
20.68000 563.242
20.85000 552.771
21.02000 550.971
21.19000 561.667
21.36000 578.086
21.53000 553.537
21.70000 534.031
21.87000 566.309
22.04000 647.160
22.21000 661.483
22.38000 560.964
22.55000 539.966
22.72000 544.051
22.89000 522.340
23.06000 528.216
23.23000 514.235
23.40000 504.722
23.57000 503.019
23.74000 521.405
23.91000 515.128
24.08000 499.517
24.25000 508.096
24.42000 485.297
24.59000 494.072
24.76000 492.283
24.93000 485.378
25.10000 475.130
25.27000 476.110
25.44000 474.216
25.61000 452.977
25.78000 480.228
25.95000 447.103
26.12000 467.716
26.29000 450.581
26.46000 441.259
26.63000 470.611
26.80000 457.798
26.97000 454.266
27.14000 451.661
27.31000 457.512
27.48000 429.903
27.65000 437.452
27.82000 445.415
27.99000 429.477
28.16000 399.987
28.33000 431.389
28.50000 419.740
28.67000 413.937
28.84000 428.812
29.01000 415.764
29.18000 430.126
29.35000 401.907
29.52000 403.923
29.69000 410.643
29.86000 427.993
30.03000 460.699
30.20000 429.761
30.37000 435.445
30.54000 433.497
30.71000 429.974
30.88000 451.829
31.05000 566.202
31.22000 1373.087
31.39000 3484.494
31.56000 2402.388
31.73000 689.941
31.90000 484.142
32.07000 421.349
32.24000 427.658
32.41000 395.267
32.58000 368.008
32.75000 353.315
32.92000 389.032
33.09000 389.316
33.26000 358.928
33.43000 361.730
33.60000 344.420
33.77000 345.262
33.94000 345.909
34.11000 347.691
34.28000 338.304
34.45000 356.569
34.62000 339.929
34.79000 335.431
34.96000 324.137
35.13000 310.437
35.30000 322.719
35.47000 324.215
35.64000 315.908
35.81000 313.711
35.98000 301.923
36.15000 298.999
36.32000 310.831
36.49000 298.545
36.66000 284.196
36.83000 305.399
37.00000 307.359
37.17000 307.743
37.34000 287.024
37.51000 301.906
37.68000 294.128
37.85000 296.248
38.02000 287.517
38.19000 305.386
38.36000 311.889
38.53000 428.329
38.70000 787.388
38.87000 810.790
39.04000 379.399
39.21000 290.473
39.38000 270.581
39.55000 277.180
39.72000 263.897
39.89000 266.666
40.06000 257.402
40.23000 261.111
40.40000 245.010
40.57000 258.008
40.74000 247.331
40.91000 243.624
41.08000 246.654
41.25000 249.053
41.42000 242.948
41.59000 245.413
41.76000 231.202
41.93000 245.212
42.10000 232.373
42.27000 230.623
42.44000 237.983
42.61000 229.786
42.78000 228.642
42.95000 232.147
43.12000 229.954
43.29000 231.288
43.46000 225.757
43.63000 229.848
43.80000 223.880
43.97000 232.643
44.14000 218.558
44.31000 217.094
44.48000 224.504
44.65000 227.217
44.82000 247.750
44.99000 302.667
45.16000 331.181
45.33000 297.195
45.50000 247.979
45.67000 228.263
45.84000 211.778
46.01000 212.506
46.18000 212.025
46.35000 199.564
46.52000 205.288
46.69000 199.600
46.86000 188.470
47.03000 202.307
47.20000 199.973
47.37000 194.385
47.54000 197.732
47.71000 178.176
47.88000 183.241
48.05000 183.070
48.22000 201.722
48.39000 177.953
48.56000 170.070
48.73000 175.554
48.90000 173.074
49.07000 177.072
49.24000 179.095
49.41000 183.018
49.58000 173.302
49.75000 191.991
49.92000 184.101
50.09000 186.781
50.26000 182.243
50.43000 186.464
50.60000 229.038
50.77000 260.210
50.94000 220.607
51.11000 184.282
51.28000 169.411
51.45000 162.803
51.62000 161.752
51.79000 171.776
51.96000 162.638
52.13000 162.275
52.30000 173.270
52.47000 159.554
52.64000 152.751
52.81000 146.155
52.98000 162.567
53.15000 174.368
53.32000 158.968
53.49000 176.402
53.66000 155.888
53.83000 150.949
54.00000 155.798
54.17000 156.987
54.34000 148.512
54.51000 147.252
54.68000 156.325
54.85000 153.142
55.02000 160.561
55.19000 164.765
55.36000 166.341
55.53000 187.451
55.70000 264.671
55.87000 519.140
56.04000 613.642
56.21000 401.209
56.38000 210.863
56.55000 177.417
56.72000 154.380
56.89000 151.449
57.06000 140.235
57.23000 142.168
57.40000 144.955
57.57000 145.977
57.74000 139.157
57.91000 149.659
58.08000 142.205
58.25000 145.374
58.42000 136.128
58.59000 136.961
58.76000 145.750
58.93000 131.855
59.10000 136.964
59.27000 130.519
59.44000 127.288
59.61000 124.366
59.78000 132.338
59.95000 130.733
60.12000 133.112
60.29000 126.576
60.46000 136.567
60.63000 139.583
60.80000 131.940
60.97000 128.556
61.14000 134.818
61.31000 136.759
61.48000 147.671
61.65000 225.417
61.82000 216.787
61.99000 135.449
62.16000 144.306
62.33000 144.566
62.50000 136.879
62.67000 137.348
62.84000 138.651
63.01000 146.641
63.18000 153.899
63.35000 142.868
63.52000 140.349
63.69000 156.776
63.86000 153.310
64.03000 157.786
64.20000 155.988
64.37000 166.443
64.54000 151.787
64.71000 166.306
64.88000 189.176
65.05000 188.269
65.22000 216.679
65.39000 277.729
65.56000 402.651
65.73000 559.667
65.90000 973.004
66.07000 409.464
66.24000 290.364
66.41000 386.255
66.58000 346.633
66.75000 285.364
66.92000 302.761
67.09000 317.602
67.26000 355.927
67.43000 390.296
67.60000 414.240
67.77000 428.333
67.94000 487.099
68.11000 523.211
68.28000 578.420
68.45000 651.357
68.62000 847.236
68.79000 1579.953
68.96000 5129.626
69.13000 49278.719
69.30000 35365.164
69.47000 11867.387
69.64000 1247.374
69.81000 802.697
69.98000 655.977
70.00000 644.145

File: BTO_Mapping_Theta2Theta_30-09-2025_001_38_-8-090_-5-878.xy
20.00000 551.210
20.17000 585.164
20.34000 567.433
20.51000 582.048
20.68000 572.425
20.85000 563.605
21.02000 558.695
21.19000 565.543
21.36000 524.011
21.53000 572.569
21.70000 559.674
21.87000 670.270
22.04000 837.455
22.21000 680.133
22.38000 549.239
22.55000 533.614
22.72000 531.736
22.89000 498.904
23.06000 509.595
23.23000 506.919
23.40000 511.370
23.57000 498.077
23.74000 514.849
23.91000 528.556
24.08000 528.728
24.25000 499.599
24.42000 500.462
24.59000 493.565
24.76000 483.969
24.93000 492.700
25.10000 495.411
25.27000 484.632
25.44000 464.247
25.61000 472.772
25.78000 478.490
25.95000 453.884
26.12000 459.807
26.29000 456.089
26.46000 469.875
26.63000 454.121
26.80000 454.458
26.97000 447.825
27.14000 462.877
27.31000 447.536
27.48000 458.938
27.65000 451.992
27.82000 415.059
27.99000 439.989
28.16000 451.907
28.33000 439.035
28.50000 425.719
28.67000 422.129
28.84000 426.183
29.01000 439.086
29.18000 406.171
29.35000 439.968
29.52000 427.554
29.69000 426.603
29.86000 427.434
30.03000 456.339
30.20000 426.591
30.37000 435.662
30.54000 426.363
30.71000 444.156
30.88000 472.373
31.05000 702.438
31.22000 2054.955
31.39000 3773.000
31.56000 1672.938
31.73000 574.104
31.90000 452.182
32.07000 438.800
32.24000 420.930
32.41000 417.102
32.58000 396.392
32.75000 393.897
32.92000 437.307
33.09000 453.566
33.26000 359.902
33.43000 345.594
33.60000 349.925
33.77000 328.099
33.94000 341.691
34.11000 349.098
34.28000 335.611
34.45000 327.589
34.62000 329.559
34.79000 320.210
34.96000 327.746
35.13000 315.781
35.30000 323.650
35.47000 305.193
35.64000 342.363
35.81000 315.438
35.98000 309.288
36.15000 317.410
36.32000 301.994
36.49000 308.840
36.66000 297.622
36.83000 290.833
37.00000 310.848
37.17000 320.724
37.34000 287.128
37.51000 300.874
37.68000 296.265
37.85000 285.057
38.02000 289.847
38.19000 311.185
38.36000 345.524
38.53000 492.616
38.70000 805.295
38.87000 564.912
39.04000 334.248
39.21000 295.633
39.38000 273.041
39.55000 285.015
39.72000 276.926
39.89000 266.346
40.06000 273.237
40.23000 271.888
40.40000 255.556
40.57000 251.483
40.74000 251.411
40.91000 267.187
41.08000 252.806
41.25000 251.466
41.42000 249.615
41.59000 257.973
41.76000 242.964
41.93000 247.961
42.10000 237.520
42.27000 251.152
42.44000 230.261
42.61000 250.015
42.78000 229.464
42.95000 228.677
43.12000 223.903
43.29000 225.033
43.46000 240.776
43.63000 225.184
43.80000 218.325
43.97000 220.632
44.14000 209.601
44.31000 224.278
44.48000 235.462
44.65000 236.561
44.82000 310.603
44.99000 459.544
45.16000 440.237
45.33000 308.180
45.50000 249.759
45.67000 222.648
45.84000 210.999
46.01000 203.228
46.18000 218.437
46.35000 222.142
46.52000 204.198
46.69000 200.382
46.86000 202.821
47.03000 200.052
47.20000 196.343
47.37000 192.102
47.54000 196.819
47.71000 187.378
47.88000 192.030
48.05000 186.679
48.22000 212.002
48.39000 194.846
48.56000 182.649
48.73000 174.100
48.90000 196.362
49.07000 179.719
49.24000 181.368
49.41000 176.574
49.58000 182.089
49.75000 179.361
49.92000 190.807
50.09000 171.169
50.26000 188.482
50.43000 211.142
50.60000 266.793
50.77000 263.589
50.94000 221.325
51.11000 174.163
51.28000 175.626
51.45000 168.024
51.62000 164.300
51.79000 172.350
51.96000 157.772
52.13000 161.636
52.30000 159.440
52.47000 172.040
52.64000 154.497
52.81000 149.917
52.98000 161.609
53.15000 168.543
53.32000 158.799
53.49000 155.775
53.66000 163.592
53.83000 155.368
54.00000 165.566
54.17000 156.191
54.34000 164.120
54.51000 153.050
54.68000 161.217
54.85000 156.003
55.02000 164.848
55.19000 160.748
55.36000 185.138
55.53000 206.825
55.70000 335.709
55.87000 641.596
56.04000 551.263
56.21000 304.724
56.38000 201.001
56.55000 161.636
56.72000 160.640
56.89000 152.705
57.06000 157.195
57.23000 145.315
57.40000 146.916
57.57000 139.076
57.74000 146.614
57.91000 136.197
58.08000 142.266
58.25000 144.594
58.42000 139.534
58.59000 126.491
58.76000 134.175
58.93000 134.994
59.10000 141.351
59.27000 142.589
59.44000 123.233
59.61000 135.305
59.78000 136.905
59.95000 141.845
60.12000 122.914
60.29000 144.835
60.46000 128.598
60.63000 138.033
60.80000 136.207
60.97000 138.711
61.14000 130.094
61.31000 135.633
61.48000 153.848
61.65000 299.316
61.82000 224.832
61.99000 147.606
62.16000 146.764
62.33000 142.656
62.50000 141.743
62.67000 143.111
62.84000 146.893
63.01000 146.326
63.18000 147.453
63.35000 160.196
63.52000 148.672
63.69000 141.075
63.86000 171.264
64.03000 165.857
64.20000 146.592
64.37000 172.918
64.54000 174.968
64.71000 174.179
64.88000 186.590
65.05000 205.533
65.22000 234.418
65.39000 345.833
65.56000 452.783
65.73000 733.152
65.90000 1282.806
66.07000 428.445
66.24000 332.712
66.41000 505.484
66.58000 365.093
66.75000 319.064
66.92000 362.614
67.09000 380.387
67.26000 404.676
67.43000 433.470
67.60000 467.247
67.77000 513.608
67.94000 564.518
68.11000 621.249
68.28000 655.102
68.45000 773.610
68.62000 1142.256
68.79000 2175.262
68.96000 13677.553
69.13000 75223.164
69.30000 46324.645
69.47000 11812.280
69.64000 1491.026
69.81000 966.010
69.98000 767.138
70.00000 758.532

File: BTO_Mapping_Theta2Theta_30-09-2025_001_39_-16-180_-11-756.xy
20.00000 558.855
20.17000 568.530
20.34000 576.334
20.51000 565.688
20.68000 550.749
20.85000 554.401
21.02000 561.302
21.19000 588.495
21.36000 535.786
21.53000 565.223
21.70000 550.207
21.87000 676.535
22.04000 837.415
22.21000 701.985
22.38000 570.692
22.55000 532.833
22.72000 532.727
22.89000 524.208
23.06000 534.267
23.23000 546.850
23.40000 502.762
23.57000 500.365
23.74000 491.665
23.91000 504.392
24.08000 496.127
24.25000 501.281
24.42000 498.632
24.59000 484.547
24.76000 501.785
24.93000 480.968
25.10000 471.167
25.27000 475.900
25.44000 471.331
25.61000 486.254
25.78000 476.363
25.95000 481.123
26.12000 471.246
26.29000 466.800
26.46000 441.513
26.63000 454.120
26.80000 442.187
26.97000 426.870
27.14000 464.650
27.31000 448.687
27.48000 452.042
27.65000 451.539
27.82000 432.309
27.99000 433.820
28.16000 436.335
28.33000 441.363
28.50000 419.434
28.67000 432.221
28.84000 430.694
29.01000 414.401
29.18000 425.708
29.35000 427.435
29.52000 408.113
29.69000 417.883
29.86000 433.534
30.03000 460.157
30.20000 456.206
30.37000 431.044
30.54000 441.243
30.71000 469.254
30.88000 488.095
31.05000 675.299
31.22000 2033.001
31.39000 3921.172
31.56000 1802.766
31.73000 574.520
31.90000 440.780
32.07000 418.260
32.24000 410.422
32.41000 395.989
32.58000 377.630
32.75000 381.998
32.92000 435.298
33.09000 446.655
33.26000 373.610
33.43000 363.694
33.60000 371.558
33.77000 350.561
33.94000 333.353
34.11000 335.521
34.28000 344.149
34.45000 329.443
34.62000 338.313
34.79000 331.093
34.96000 337.133
35.13000 323.091
35.30000 326.475
35.47000 317.073
35.64000 301.488
35.81000 308.219
35.98000 314.968
36.15000 310.105
36.32000 305.722
36.49000 303.640
36.66000 306.296
36.83000 300.764
37.00000 302.098
37.17000 301.525
37.34000 297.640
37.51000 300.778
37.68000 288.216
37.85000 296.147
38.02000 309.097
38.19000 300.757
38.36000 329.827
38.53000 475.853
38.70000 760.196
38.87000 551.924
39.04000 342.694
39.21000 287.727
39.38000 277.793
39.55000 280.183
39.72000 259.946
39.89000 272.039
40.06000 260.477
40.23000 256.043
40.40000 242.263
40.57000 244.674
40.74000 256.686
40.91000 254.626
41.08000 251.436
41.25000 252.581
41.42000 233.655
41.59000 243.971
41.76000 240.904
41.93000 246.462
42.10000 243.354
42.27000 237.221
42.44000 232.337
42.61000 237.238
42.78000 235.332
42.95000 238.073
43.12000 232.619
43.29000 217.501
43.46000 233.099
43.63000 222.665
43.80000 229.609
43.97000 216.160
44.14000 231.096
44.31000 233.746
44.48000 226.468
44.65000 231.667
44.82000 308.568
44.99000 462.010
45.16000 449.702
45.33000 298.695
45.50000 246.445
45.67000 225.125
45.84000 217.170
46.01000 200.386
46.18000 213.923
46.35000 217.399
46.52000 200.631
46.69000 199.208
46.86000 194.813
47.03000 204.873
47.20000 196.558
47.37000 188.154
47.54000 192.794
47.71000 192.189
47.88000 190.732
48.05000 194.565
48.22000 188.919
48.39000 189.290
48.56000 177.856
48.73000 187.313
48.90000 177.694
49.07000 175.298
49.24000 177.128
49.41000 187.875
49.58000 180.568
49.75000 169.697
49.92000 182.605
50.09000 170.302
50.26000 188.683
50.43000 204.278
50.60000 260.983
50.77000 281.213
50.94000 214.718
51.11000 187.061
51.28000 171.841
51.45000 169.938
51.62000 165.913
51.79000 161.230
51.96000 165.918
52.13000 165.219
52.30000 150.224
52.47000 158.153
52.64000 160.567
52.81000 164.372
52.98000 153.249
53.15000 168.373
53.32000 171.428
53.49000 152.319
53.66000 157.440
53.83000 167.619
54.00000 148.428
54.17000 165.337
54.34000 155.544
54.51000 156.870
54.68000 156.433
54.85000 153.317
55.02000 164.696
55.19000 169.207
55.36000 171.234
55.53000 205.151
55.70000 336.638
55.87000 611.578
56.04000 566.252
56.21000 317.320
56.38000 195.919
56.55000 160.455
56.72000 149.818
56.89000 154.187
57.06000 149.568
57.23000 145.704
57.40000 148.686
57.57000 144.180
57.74000 130.154
57.91000 149.000
58.08000 149.962
58.25000 134.614
58.42000 137.402
58.59000 137.255
58.76000 129.279
58.93000 131.310
59.10000 132.674
59.27000 151.041
59.44000 137.983
59.61000 144.690
59.78000 128.601
59.95000 134.389
60.12000 127.759
60.29000 133.708
60.46000 134.276
60.63000 127.928
60.80000 141.182
60.97000 142.398
61.14000 144.167
61.31000 130.221
61.48000 145.287
61.65000 302.521
61.82000 249.529
61.99000 141.455
62.16000 138.129
62.33000 149.408
62.50000 139.786
62.67000 146.179
62.84000 145.050
63.01000 147.221
63.18000 154.534
63.35000 157.927
63.52000 153.777
63.69000 161.736
63.86000 174.276
64.03000 152.634
64.20000 163.590
64.37000 169.604
64.54000 175.660
64.71000 176.653
64.88000 193.002
65.05000 199.512
65.22000 246.823
65.39000 351.051
65.56000 435.193
65.73000 747.220
65.90000 1323.553
66.07000 452.543
66.24000 355.303
66.41000 504.513
66.58000 379.503
66.75000 332.721
66.92000 354.115
67.09000 382.258
67.26000 389.850
67.43000 422.367
67.60000 487.352
67.77000 515.893
67.94000 566.938
68.11000 620.207
68.28000 673.906
68.45000 802.164
68.62000 1129.362
68.79000 2182.566
68.96000 12522.054
69.13000 76503.445
69.30000 48456.688
69.47000 13266.849
69.64000 1510.159
69.81000 989.297
69.98000 788.013
70.00000 769.923

File: BTO_Mapping_Theta2Theta_30-09-2025_001_42_-5-000_-8-660.xy
20.00000 569.223
20.17000 582.326
20.34000 553.439
20.51000 573.008
20.68000 570.351
20.85000 570.379
21.02000 552.216
21.19000 552.579
21.36000 540.758
21.53000 551.111
21.70000 540.361
21.87000 704.480
22.04000 876.846
22.21000 709.164
22.38000 565.932
22.55000 558.584
22.72000 539.080
22.89000 543.111
23.06000 539.229
23.23000 501.236
23.40000 513.851
23.57000 526.032
23.74000 500.274
23.91000 515.207
24.08000 492.765
24.25000 492.766
24.42000 514.957
24.59000 494.626
24.76000 495.586
24.93000 494.645
25.10000 494.805
25.27000 473.417
25.44000 478.646
25.61000 498.386
25.78000 482.134
25.95000 472.981
26.12000 483.503
26.29000 470.689
26.46000 448.161
26.63000 460.098
26.80000 451.408
26.97000 460.462
27.14000 461.139
27.31000 440.656
27.48000 431.996
27.65000 450.299
27.82000 432.063
27.99000 446.140
28.16000 427.664
28.33000 424.652
28.50000 428.527
28.67000 426.740
28.84000 420.012
29.01000 425.453
29.18000 422.636
29.35000 420.209
29.52000 433.532
29.69000 423.002
29.86000 436.353
30.03000 462.905
30.20000 456.728
30.37000 454.725
30.54000 441.135
30.71000 476.970
30.88000 475.266
31.05000 709.564
31.22000 2171.334
31.39000 3803.015
31.56000 1618.695
31.73000 565.622
31.90000 461.592
32.07000 430.164
32.24000 422.485
32.41000 395.090
32.58000 378.320
32.75000 388.719
32.92000 431.651
33.09000 463.815
33.26000 364.814
33.43000 343.392
33.60000 348.926
33.77000 337.381
33.94000 353.817
34.11000 343.275
34.28000 324.703
34.45000 344.783
34.62000 326.996
34.79000 331.238
34.96000 313.862
35.13000 314.514
35.30000 308.801
35.47000 316.328
35.64000 311.062
35.81000 323.420
35.98000 324.858
36.15000 320.822
36.32000 306.008
36.49000 300.968
36.66000 304.822
36.83000 315.263
37.00000 324.548
37.17000 310.084
37.34000 297.583
37.51000 310.444
37.68000 306.234
37.85000 295.382
38.02000 297.511
38.19000 325.863
38.36000 332.279
38.53000 485.626
38.70000 734.266
38.87000 538.305
39.04000 318.659
39.21000 291.829
39.38000 278.900
39.55000 269.368
39.72000 281.285
39.89000 269.491
40.06000 262.658
40.23000 264.937
40.40000 254.038
40.57000 261.140
40.74000 250.910
40.91000 248.014
41.08000 245.361
41.25000 249.083
41.42000 241.097
41.59000 254.235
41.76000 264.847
41.93000 244.422
42.10000 234.339
42.27000 233.195
42.44000 237.971
42.61000 230.968
42.78000 236.340
42.95000 231.297
43.12000 237.159
43.29000 222.756
43.46000 221.765
43.63000 224.552
43.80000 234.939
43.97000 229.315
44.14000 226.268
44.31000 229.556
44.48000 241.097
44.65000 261.195
44.82000 326.655
44.99000 504.898
45.16000 473.603
45.33000 312.464
45.50000 239.401
45.67000 221.469
45.84000 207.520
46.01000 214.764
46.18000 213.865
46.35000 210.170
46.52000 213.652
46.69000 219.430
46.86000 199.614
47.03000 193.844
47.20000 192.578
47.37000 188.233
47.54000 191.992
47.71000 181.699
47.88000 189.561
48.05000 194.293
48.22000 190.998
48.39000 194.524
48.56000 175.989
48.73000 185.403
48.90000 184.367
49.07000 181.069
49.24000 186.850
49.41000 180.137
49.58000 175.582
49.75000 173.023
49.92000 166.143
50.09000 184.412
50.26000 198.845
50.43000 211.048
50.60000 274.585
50.77000 282.661
50.94000 209.630
51.11000 176.557
51.28000 165.479
51.45000 173.961
51.62000 166.462
51.79000 170.251
51.96000 177.764
52.13000 157.975
52.30000 158.317
52.47000 163.566
52.64000 159.167
52.81000 164.180
52.98000 151.940
53.15000 160.597
53.32000 155.001
53.49000 157.127
53.66000 154.447
53.83000 158.833
54.00000 156.564
54.17000 146.816
54.34000 154.671
54.51000 155.080
54.68000 170.012
54.85000 177.348
55.02000 162.914
55.19000 170.566
55.36000 179.960
55.53000 216.703
55.70000 352.462
55.87000 619.002
56.04000 544.585
56.21000 298.969
56.38000 184.498
56.55000 165.074
56.72000 160.315
56.89000 146.409
57.06000 144.009
57.23000 146.028
57.40000 149.127
57.57000 147.663
57.74000 148.214
57.91000 140.141
58.08000 140.861
58.25000 139.781
58.42000 142.910
58.59000 143.110
58.76000 134.535
58.93000 136.880
59.10000 137.186
59.27000 133.647
59.44000 138.492
59.61000 138.101
59.78000 134.640
59.95000 140.910
60.12000 124.715
60.29000 132.812
60.46000 130.252
60.63000 144.855
60.80000 138.693
60.97000 147.468
61.14000 146.731
61.31000 140.791
61.48000 155.420
61.65000 322.696
61.82000 229.105
61.99000 141.878
62.16000 145.301
62.33000 147.385
62.50000 156.088
62.67000 149.328
62.84000 140.482
63.01000 153.660
63.18000 145.207
63.35000 153.127
63.52000 149.019
63.69000 151.926
63.86000 153.045
64.03000 160.519
64.20000 158.294
64.37000 174.929
64.54000 151.556
64.71000 178.990
64.88000 196.923
65.05000 198.369
65.22000 257.031
65.39000 370.578
65.56000 461.764
65.73000 786.639
65.90000 1293.612
66.07000 412.016
66.24000 331.365
66.41000 502.480
66.58000 375.583
66.75000 334.210
66.92000 352.391
67.09000 395.558
67.26000 373.724
67.43000 429.859
67.60000 469.134
67.77000 496.514
67.94000 574.071
68.11000 604.268
68.28000 681.755
68.45000 805.026
68.62000 1177.279
68.79000 2287.249
68.96000 14754.014
69.13000 76657.734
69.30000 46880.117
69.47000 11706.647
69.64000 1490.298
69.81000 973.554
69.98000 790.493
70.00000 759.072

File: BTO_Mapping_Theta2Theta_30-09-2025_001_45_-20-000_-34-641.xy
20.00000 569.226
20.17000 571.319
20.34000 550.824
20.51000 554.014
20.68000 562.461
20.85000 555.235
21.02000 562.376
21.19000 547.800
21.36000 545.776
21.53000 565.920
21.70000 584.477
21.87000 755.324
22.04000 921.257
22.21000 698.688
22.38000 564.676
22.55000 536.555
22.72000 543.471
22.89000 537.468
23.06000 523.664
23.23000 532.719
23.40000 491.700
23.57000 518.758
23.74000 510.513
23.91000 517.065
24.08000 500.062
24.25000 492.793
24.42000 504.102
24.59000 488.613
24.76000 484.632
24.93000 471.637
25.10000 487.272
25.27000 472.285
25.44000 461.225
25.61000 471.082
25.78000 472.171
25.95000 478.511
26.12000 450.627
26.29000 472.007
26.46000 473.026
26.63000 456.770
26.80000 467.292
26.97000 439.523
27.14000 458.259
27.31000 452.532
27.48000 449.299
27.65000 439.608
27.82000 433.855
27.99000 441.339
28.16000 451.280
28.33000 465.177
28.50000 424.923
28.67000 424.854
28.84000 434.846
29.01000 428.758
29.18000 425.823
29.35000 407.859
29.52000 421.052
29.69000 419.470
29.86000 456.432
30.03000 482.534
30.20000 436.913
30.37000 447.005
30.54000 456.768
30.71000 464.999
30.88000 493.488
31.05000 814.933
31.22000 2788.733
31.39000 4110.908
31.56000 1449.508
31.73000 543.521
31.90000 435.609
32.07000 439.394
32.24000 410.806
32.41000 411.392
32.58000 403.317
32.75000 385.259
32.92000 448.531
33.09000 481.613
33.26000 358.539
33.43000 359.790
33.60000 346.045
33.77000 356.824
33.94000 368.046
34.11000 346.886
34.28000 346.107
34.45000 343.623
34.62000 337.033
34.79000 338.994
34.96000 328.129
35.13000 331.012
35.30000 323.617
35.47000 330.584
35.64000 330.799
35.81000 314.348
35.98000 304.120
36.15000 301.316
36.32000 303.468
36.49000 296.139
36.66000 299.683
36.83000 315.055
37.00000 307.304
37.17000 291.227
37.34000 317.676
37.51000 299.538
37.68000 289.981
37.85000 300.284
38.02000 306.056
38.19000 296.437
38.36000 350.827
38.53000 443.833
38.70000 555.362
38.87000 392.530
39.04000 317.420
39.21000 290.263
39.38000 268.415
39.55000 271.296
39.72000 269.110
39.89000 272.172
40.06000 262.261
40.23000 264.566
40.40000 271.715
40.57000 249.631
40.74000 257.835
40.91000 248.044
41.08000 246.819
41.25000 247.935
41.42000 249.330
41.59000 231.078
41.76000 248.010
41.93000 242.401
42.10000 238.729
42.27000 245.419
42.44000 241.906
42.61000 237.719
42.78000 241.456
42.95000 225.388
43.12000 238.818
43.29000 231.876
43.46000 230.886
43.63000 237.374
43.80000 231.669
43.97000 230.225
44.14000 224.475
44.31000 229.587
44.48000 239.572
44.65000 260.813
44.82000 401.298
44.99000 578.895
45.16000 443.340
45.33000 296.775
45.50000 233.321
45.67000 223.746
45.84000 225.824
46.01000 208.744
46.18000 215.552
46.35000 222.046
46.52000 212.881
46.69000 204.368
46.86000 192.185
47.03000 201.397
47.20000 197.128
47.37000 189.865
47.54000 192.612
47.71000 189.441
47.88000 193.126
48.05000 181.142
48.22000 182.360
48.39000 189.950
48.56000 188.965
48.73000 181.249
48.90000 181.807
49.07000 183.163
49.24000 182.555
49.41000 183.687
49.58000 172.794
49.75000 185.853
49.92000 182.389
50.09000 187.701
50.26000 181.149
50.43000 243.879
50.60000 304.448
50.77000 279.087
50.94000 208.853
51.11000 181.733
51.28000 180.296
51.45000 173.530
51.62000 171.822
51.79000 158.264
51.96000 167.208
52.13000 170.900
52.30000 165.272
52.47000 171.246
52.64000 166.363
52.81000 152.756
52.98000 165.848
53.15000 178.254
53.32000 151.483
53.49000 153.549
53.66000 153.329
53.83000 162.734
54.00000 161.839
54.17000 160.621
54.34000 156.555
54.51000 154.396
54.68000 167.461
54.85000 156.637
55.02000 160.832
55.19000 170.657
55.36000 180.471
55.53000 263.258
55.70000 465.833
55.87000 648.993
56.04000 485.896
56.21000 251.234
56.38000 176.915
56.55000 159.675
56.72000 163.799
56.89000 156.355
57.06000 155.064
57.23000 150.844
57.40000 152.969
57.57000 152.504
57.74000 142.498
57.91000 138.693
58.08000 140.603
58.25000 137.698
58.42000 138.203
58.59000 141.214
58.76000 140.643
58.93000 148.657
59.10000 136.404
59.27000 137.740
59.44000 147.289
59.61000 132.438
59.78000 138.925
59.95000 135.852
60.12000 137.625
60.29000 134.224
60.46000 131.697
60.63000 126.167
60.80000 143.224
60.97000 131.157
61.14000 146.760
61.31000 142.931
61.48000 143.310
61.65000 326.526
61.82000 253.108
61.99000 151.396
62.16000 150.965
62.33000 144.288
62.50000 148.808
62.67000 146.162
62.84000 144.418
63.01000 149.489
63.18000 141.250
63.35000 170.424
63.52000 158.497
63.69000 155.208
63.86000 152.986
64.03000 180.960
64.20000 157.213
64.37000 171.772
64.54000 170.922
64.71000 183.265
64.88000 194.047
65.05000 221.520
65.22000 283.300
65.39000 423.152
65.56000 465.670
65.73000 711.899
65.90000 1405.497
66.07000 475.712
66.24000 330.967
66.41000 521.962
66.58000 399.164
66.75000 327.320
66.92000 353.217
67.09000 388.505
67.26000 396.360
67.43000 467.770
67.60000 477.040
67.77000 540.413
67.94000 561.469
68.11000 636.199
68.28000 706.733
68.45000 804.474
68.62000 1160.602
68.79000 2392.710
68.96000 13827.107
69.13000 84102.047
69.30000 55438.168
69.47000 15979.481
69.64000 1706.121
69.81000 1064.783
69.98000 825.690
70.00000 821.075