Folder: Master-Thesis/XRD/XRD/30-09-2025 Dep 1/XY Data

File: BTO_Mapping_Theta2Theta_30-09-2025_001_01_0-000_0-000.xy
20.00000 566.421
20.17000 566.312
20.34000 552.084
20.51000 578.164
20.68000 529.607
20.85000 559.093
21.02000 569.213
21.19000 569.820
21.36000 543.766
21.53000 551.980
21.70000 565.790
21.87000 670.400
22.04000 820.990
22.21000 674.563
22.38000 567.472
22.55000 548.129
22.72000 531.269
22.89000 532.802
23.06000 497.170
23.23000 508.495
23.40000 490.286
23.57000 494.750
23.74000 509.136
23.91000 494.256
24.08000 526.744
24.25000 492.066
24.42000 518.503
24.59000 498.177
24.76000 480.619
24.93000 463.522
25.10000 485.970
25.27000 467.956
25.44000 454.270
25.61000 474.478
25.78000 470.100
25.95000 442.983
26.12000 470.457
26.29000 470.295
26.46000 455.476
26.63000 453.962
26.80000 445.302
26.97000 449.858
27.14000 463.518
27.31000 449.602
27.48000 441.999
27.65000 438.606
27.82000 448.273
27.99000 439.174
28.16000 445.252
28.33000 428.789
28.50000 407.860
28.67000 406.270
28.84000 420.205
29.01000 421.781
29.18000 400.707
29.35000 420.286
29.52000 409.370
29.69000 415.750
29.86000 431.138
30.03000 449.730
30.20000 436.079
30.37000 434.755
30.54000 427.478
30.71000 426.842
30.88000 511.599
31.05000 704.849
31.22000 2098.812
31.39000 3654.016
31.56000 1559.816
31.73000 565.669
31.90000 456.242
32.07000 428.402
32.24000 401.598
32.41000 387.929
32.58000 387.659
32.75000 369.430
32.92000 423.416
33.09000 423.349
33.26000 343.860
33.43000 354.845
33.60000 343.195
33.77000 327.998
33.94000 320.456
34.11000 332.575
34.28000 328.739
34.45000 336.724
34.62000 318.921
34.79000 330.280
34.96000 307.235
35.13000 320.514
35.30000 319.339
35.47000 312.230
35.64000 308.394
35.81000 318.720
35.98000 311.869
36.15000 319.073
36.32000 280.567
36.49000 293.271
36.66000 292.710
36.83000 300.990
37.00000 307.778
37.17000 289.442
37.34000 300.447
37.51000 288.089
37.68000 294.917
37.85000 290.247
38.02000 293.330
38.19000 318.275
38.36000 344.221
38.53000 516.954
38.70000 834.238
38.87000 590.765
39.04000 331.991
39.21000 287.701
39.38000 271.340
39.55000 277.961
39.72000 270.316
39.89000 274.842
40.06000 270.505
40.23000 254.888
40.40000 267.655
40.57000 265.936
40.74000 271.820
40.91000 250.938
41.08000 244.696
41.25000 252.343
41.42000 252.086
41.59000 253.719
41.76000 226.019
41.93000 234.919
42.10000 240.022
42.27000 232.698
42.44000 237.134
42.61000 223.924
42.78000 226.239
42.95000 226.531
43.12000 240.110
43.29000 219.214
43.46000 220.840
43.63000 222.495
43.80000 213.636
43.97000 230.887
44.14000 224.547
44.31000 211.134
44.48000 239.909
44.65000 243.305
44.82000 288.935
44.99000 434.834
45.16000 434.142
45.33000 304.983
45.50000 235.337
45.67000 226.225
45.84000 222.720
46.01000 213.154
46.18000 202.847
46.35000 212.662
46.52000 203.145
46.69000 191.769
46.86000 196.440
47.03000 201.973
47.20000 196.948
47.37000 206.734
47.54000 187.373
47.71000 199.686
47.88000 189.503
48.05000 190.576
48.22000 180.726
48.39000 189.979
48.56000 201.770
48.73000 190.863
48.90000 175.858
49.07000 185.477
49.24000 183.127
49.41000 179.062
49.58000 184.140
49.75000 188.986
49.92000 176.372
50.09000 184.379
50.26000 176.020
50.43000 205.652
50.60000 260.588
50.77000 277.329
50.94000 218.198
51.11000 183.333
51.28000 179.400
51.45000 162.087
51.62000 183.850
51.79000 155.622
51.96000 164.705
52.13000 169.638
52.30000 159.754
52.47000 171.815
52.64000 162.092
52.81000 162.903
52.98000 158.582
53.15000 157.139
53.32000 165.418
53.49000 176.076
53.66000 150.264
53.83000 155.363
54.00000 152.352
54.17000 162.277
54.34000 145.650
54.51000 162.741
54.68000 159.088
54.85000 148.862
55.02000 160.920
55.19000 167.945
55.36000 173.173
55.53000 203.417
55.70000 350.010
55.87000 652.359
56.04000 565.249
56.21000 291.618
56.38000 179.490
56.55000 164.857
56.72000 155.829
56.89000 137.099
57.06000 143.223
57.23000 142.605
57.40000 137.506
57.57000 128.370
57.74000 150.967
57.91000 146.508
58.08000 135.495
58.25000 141.340
58.42000 140.321
58.59000 143.023
58.76000 134.564
58.93000 133.144
59.10000 137.027
59.27000 134.504
59.44000 140.086
59.61000 130.451
59.78000 135.611
59.95000 129.994
60.12000 137.216
60.29000 134.605
60.46000 133.800
60.63000 140.310
60.80000 136.327
60.97000 137.243
61.14000 141.486
61.31000 129.329
61.48000 154.716
61.65000 290.572
61.82000 217.432
61.99000 149.474
62.16000 153.926
62.33000 135.354
62.50000 136.811
62.67000 141.663
62.84000 149.695
63.01000 154.039
63.18000 161.156
63.35000 163.010
63.52000 153.426
63.69000 153.588
63.86000 154.691
64.03000 163.911
64.20000 161.595
64.37000 157.424
64.54000 179.283
64.71000 184.257
64.88000 179.276
65.05000 202.677
65.22000 242.690
65.39000 348.167
65.56000 443.080
65.73000 751.575
65.90000 1247.211
66.07000 417.752
66.24000 316.578
66.41000 489.182
66.58000 347.505
66.75000 322.846
66.92000 351.958
67.09000 368.280
67.26000 391.784
67.43000 430.785
67.60000 473.925
67.77000 498.709
67.94000 523.874
68.11000 602.415
68.28000 686.239
68.45000 784.563
68.62000 1098.895
68.79000 2224.574
68.96000 15002.197
69.13000 73073.906
69.30000 43435.508
69.47000 10241.284
69.64000 1449.276
69.81000 923.011
69.98000 748.532
70.00000 742.678

File: BTO_Mapping_Theta2Theta_30-09-2025_001_02_10-000_0-000.xy
20.00000 564.737
20.17000 572.953
20.34000 552.663
20.51000 547.415
20.68000 555.398
20.85000 561.345
21.02000 539.994
21.19000 555.045
21.36000 561.109
21.53000 551.949
21.70000 574.924
21.87000 684.951
22.04000 867.005
22.21000 677.573
22.38000 572.890
22.55000 542.143
22.72000 523.253
22.89000 517.944
23.06000 516.469
23.23000 518.381
23.40000 492.399
23.57000 505.302
23.74000 494.615
23.91000 511.878
24.08000 490.425
24.25000 496.951
24.42000 493.202
24.59000 507.833
24.76000 501.771
24.93000 485.858
25.10000 478.859
25.27000 490.901
25.44000 459.250
25.61000 480.521
25.78000 472.759
25.95000 470.380
26.12000 488.046
26.29000 446.720
26.46000 454.888
26.63000 440.802
26.80000 462.457
26.97000 445.445
27.14000 435.427
27.31000 464.273
27.48000 448.732
27.65000 450.699
27.82000 451.524
27.99000 459.149
28.16000 444.794
28.33000 455.549
28.50000 428.947
28.67000 433.802
28.84000 421.496
29.01000 411.721
29.18000 421.295
29.35000 408.594
29.52000 409.646
29.69000 389.630
29.86000 432.288
30.03000 468.404
30.20000 452.862
30.37000 435.879
30.54000 438.839
30.71000 444.371
30.88000 497.657
31.05000 723.812
31.22000 2257.322
31.39000 3753.632
31.56000 1606.300
31.73000 553.919
31.90000 455.391
32.07000 421.550
32.24000 404.122
32.41000 410.948
32.58000 377.330
32.75000 387.584
32.92000 434.010
33.09000 437.490
33.26000 355.970
33.43000 356.848
33.60000 350.687
33.77000 335.952
33.94000 355.796
34.11000 346.019
34.28000 321.866
34.45000 346.865
34.62000 332.818
34.79000 331.390
34.96000 325.734
35.13000 327.020
35.30000 313.519
35.47000 322.086
35.64000 312.767
35.81000 310.652
35.98000 317.382
36.15000 303.856
36.32000 303.191
36.49000 307.588
36.66000 290.325
36.83000 305.609
37.00000 299.603
37.17000 301.584
37.34000 313.526
37.51000 289.695
37.68000 294.430
37.85000 287.831
38.02000 295.407
38.19000 317.354
38.36000 341.823
38.53000 521.104
38.70000 807.681
38.87000 545.673
39.04000 292.768
39.21000 284.149
39.38000 282.429
39.55000 268.750
39.72000 275.946
39.89000 264.752
40.06000 266.347
40.23000 248.017
40.40000 268.257
40.57000 247.598
40.74000 268.792
40.91000 249.861
41.08000 243.031
41.25000 251.899
41.42000 244.479
41.59000 241.424
41.76000 244.366
41.93000 241.296
42.10000 237.947
42.27000 245.403
42.44000 222.899
42.61000 232.276
42.78000 240.288
42.95000 233.094
43.12000 233.885
43.29000 223.357
43.46000 227.254
43.63000 219.469
43.80000 216.006
43.97000 222.837
44.14000 224.050
44.31000 228.088
44.48000 226.130
44.65000 246.655
44.82000 310.911
44.99000 466.508
45.16000 447.556
45.33000 319.061
45.50000 238.120
45.67000 226.638
45.84000 219.784
46.01000 214.057
46.18000 206.330
46.35000 210.338
46.52000 206.282
46.69000 193.047
46.86000 199.863
47.03000 194.397
47.20000 206.452
47.37000 215.771
47.54000 187.597
47.71000 200.930
47.88000 188.641
48.05000 178.619
48.22000 186.592
48.39000 193.089
48.56000 192.726
48.73000 180.136
48.90000 174.631
49.07000 185.347
49.24000 172.739
49.41000 182.314
49.58000 193.031
49.75000 180.319
49.92000 174.517
50.09000 183.139
50.26000 195.156
50.43000 198.004
50.60000 280.478
50.77000 279.501
50.94000 208.742
51.11000 178.660
51.28000 170.520
51.45000 168.772
51.62000 159.361
51.79000 164.680
51.96000 161.256
52.13000 169.767
52.30000 151.701
52.47000 158.610
52.64000 170.712
52.81000 170.621
52.98000 163.357
53.15000 160.951
53.32000 162.990
53.49000 172.685
53.66000 160.782
53.83000 158.397
54.00000 155.821
54.17000 152.923
54.34000 159.189
54.51000 150.340
54.68000 156.371
54.85000 151.891
55.02000 170.342
55.19000 160.208
55.36000 172.567
55.53000 216.988
55.70000 351.253
55.87000 628.145
56.04000 575.100
56.21000 303.152
56.38000 195.540
56.55000 162.877
56.72000 160.943
56.89000 151.000
57.06000 142.288
57.23000 140.368
57.40000 143.814
57.57000 149.457
57.74000 141.905
57.91000 141.969
58.08000 136.916
58.25000 138.998
58.42000 143.494
58.59000 140.121
58.76000 129.979
58.93000 137.445
59.10000 133.564
59.27000 136.641
59.44000 130.037
59.61000 135.625
59.78000 125.602
59.95000 134.960
60.12000 132.764
60.29000 132.082
60.46000 131.612
60.63000 140.711
60.80000 139.243
60.97000 125.499
61.14000 139.491
61.31000 144.471
61.48000 150.885
61.65000 304.536
61.82000 215.123
61.99000 149.091
62.16000 146.567
62.33000 150.886
62.50000 155.058
62.67000 149.276
62.84000 145.032
63.01000 157.327
63.18000 146.107
63.35000 152.105
63.52000 149.228
63.69000 151.928
63.86000 161.084
64.03000 165.593
64.20000 165.112
64.37000 164.754
64.54000 177.710
64.71000 180.147
64.88000 179.892
65.05000 215.535
65.22000 274.193
65.39000 365.704
65.56000 456.269
65.73000 794.309
65.90000 1270.023
66.07000 390.644
66.24000 338.983
66.41000 501.388
66.58000 353.952
66.75000 335.101
66.92000 361.565
67.09000 365.582
67.26000 399.358
67.43000 433.482
67.60000 486.932
67.77000 525.228
67.94000 560.704
68.11000 605.240
68.28000 681.188
68.45000 819.047
68.62000 1166.251
68.79000 2273.590
68.96000 17564.549
69.13000 76067.859
69.30000 44228.922
69.47000 9743.422
69.64000 1467.739
69.81000 939.438
69.98000 774.878
70.00000 801.790

File: BTO_Mapping_Theta2Theta_30-09-2025_001_03_20-000_0-000.xy
20.00000 574.858
20.17000 584.816
20.34000 565.909
20.51000 553.475
20.68000 550.869
20.85000 575.706
21.02000 543.500
21.19000 551.694
21.36000 552.248
21.53000 573.733
21.70000 569.963
21.87000 691.161
22.04000 827.371
22.21000 675.524
22.38000 586.744
22.55000 526.956
22.72000 535.198
22.89000 526.569
23.06000 533.221
23.23000 523.319
23.40000 522.928
23.57000 525.426
23.74000 481.392
23.91000 494.402
24.08000 514.504
24.25000 494.383
24.42000 487.879
24.59000 482.573
24.76000 499.430
24.93000 488.661
25.10000 470.820
25.27000 469.961
25.44000 464.565
25.61000 480.282
25.78000 466.484
25.95000 478.942
26.12000 458.128
26.29000 450.597
26.46000 457.594
26.63000 466.300
26.80000 459.563
26.97000 451.001
27.14000 451.167
27.31000 450.213
27.48000 454.095
27.65000 436.212
27.82000 419.870
27.99000 448.111
28.16000 450.776
28.33000 453.176
28.50000 436.330
28.67000 435.504
28.84000 425.588
29.01000 408.430
29.18000 434.975
29.35000 432.933
29.52000 407.146
29.69000 420.632
29.86000 447.200
30.03000 444.516
30.20000 440.297
30.37000 435.170
30.54000 449.370
30.71000 463.948
30.88000 510.517
31.05000 731.781
31.22000 2365.198
31.39000 3996.654
31.56000 1616.590
31.73000 558.838
31.90000 441.716
32.07000 423.540
32.24000 407.277
32.41000 403.196
32.58000 385.733
32.75000 374.968
32.92000 461.619
33.09000 440.432
33.26000 353.166
33.43000 356.692
33.60000 352.062
33.77000 343.844
33.94000 331.630
34.11000 336.440
34.28000 331.899
34.45000 318.951
34.62000 329.535
34.79000 314.464
34.96000 336.548
35.13000 318.348
35.30000 307.743
35.47000 307.171
35.64000 331.170
35.81000 314.729
35.98000 308.736
36.15000 307.653
36.32000 305.779
36.49000 295.241
36.66000 312.652
36.83000 300.122
37.00000 305.381
37.17000 296.060
37.34000 300.794
37.51000 301.408
37.68000 286.590
37.85000 308.301
38.02000 299.032
38.19000 307.359
38.36000 333.935
38.53000 523.607
38.70000 800.996
38.87000 568.063
39.04000 322.143
39.21000 299.469
39.38000 277.151
39.55000 285.919
39.72000 282.575
39.89000 256.804
40.06000 267.035
40.23000 254.988
40.40000 250.957
40.57000 258.234
40.74000 260.032
40.91000 259.508
41.08000 244.587
41.25000 248.727
41.42000 262.660
41.59000 252.365
41.76000 237.848
41.93000 250.853
42.10000 225.158
42.27000 241.095
42.44000 234.717
42.61000 238.840
42.78000 226.870
42.95000 246.107
43.12000 229.163
43.29000 235.006
43.46000 224.950
43.63000 212.817
43.80000 229.792
43.97000 225.145
44.14000 211.432
44.31000 231.223
44.48000 231.112
44.65000 239.014
44.82000 309.852
44.99000 468.984
45.16000 434.897
45.33000 293.384
45.50000 246.668
45.67000 211.954
45.84000 209.917
46.01000 206.883
46.18000 206.747
46.35000 204.463
46.52000 202.115
46.69000 195.778
46.86000 208.309
47.03000 207.197
47.20000 192.617
47.37000 195.999
47.54000 192.299
47.71000 186.033
47.88000 191.313
48.05000 192.922
48.22000 176.702
48.39000 188.752
48.56000 188.704
48.73000 201.270
48.90000 162.458
49.07000 177.807
49.24000 181.399
49.41000 176.817
49.58000 178.007
49.75000 182.231
49.92000 184.656
50.09000 175.820
50.26000 189.297
50.43000 205.505
50.60000 274.481
50.77000 273.818
50.94000 211.991
51.11000 172.291
51.28000 179.989
51.45000 173.530
51.62000 166.883
51.79000 166.066
51.96000 154.551
52.13000 170.888
52.30000 161.413
52.47000 158.552
52.64000 159.219
52.81000 145.054
52.98000 175.773
53.15000 159.136
53.32000 161.213
53.49000 159.183
53.66000 166.229
53.83000 156.166
54.00000 164.436
54.17000 150.047
54.34000 155.543
54.51000 169.192
54.68000 155.004
54.85000 147.161
55.02000 148.041
55.19000 175.485
55.36000 174.464
55.53000 214.411
55.70000 364.076
55.87000 659.106
56.04000 585.171
56.21000 307.949
56.38000 195.537
56.55000 168.347
56.72000 155.581
56.89000 157.683
57.06000 142.096
57.23000 149.835
57.40000 147.269
57.57000 143.440
57.74000 142.912
57.91000 133.158
58.08000 130.161
58.25000 144.773
58.42000 134.111
58.59000 144.700
58.76000 138.309
58.93000 148.295
59.10000 128.290
59.27000 122.125
59.44000 133.031
59.61000 145.740
59.78000 131.908
59.95000 137.178
60.12000 134.377
60.29000 142.322
60.46000 141.552
60.63000 129.155
60.80000 134.826
60.97000 129.501
61.14000 137.996
61.31000 139.359
61.48000 149.939
61.65000 305.111
61.82000 213.220
61.99000 145.867
62.16000 148.642
62.33000 148.855
62.50000 150.882
62.67000 148.109
62.84000 141.674
63.01000 156.631
63.18000 146.133
63.35000 147.321
63.52000 150.422
63.69000 147.466
63.86000 159.573
64.03000 167.803
64.20000 166.509
64.37000 160.365
64.54000 167.682
64.71000 187.293
64.88000 192.530
65.05000 214.742
65.22000 246.507
65.39000 357.192
65.56000 477.603
65.73000 850.952
65.90000 1331.816
66.07000 391.560
66.24000 337.941
66.41000 503.508
66.58000 364.242
66.75000 342.335
66.92000 355.247
67.09000 380.512
67.26000 414.473
67.43000 461.670
67.60000 476.668
67.77000 517.185
67.94000 572.418
68.11000 622.554
68.28000 697.186
68.45000 829.721
68.62000 1193.805
68.79000 2316.530
68.96000 19899.006
69.13000 77055.039
69.30000 43995.230
69.47000 9062.738
69.64000 1414.274
69.81000 945.359
69.98000 750.164
70.00000 722.532

File: BTO_Mapping_Theta2Theta_30-09-2025_001_04_30-000_0-000.xy
20.00000 542.244
20.17000 558.365
20.34000 585.421
20.51000 569.151
20.68000 550.092
20.85000 566.066
21.02000 550.332
21.19000 546.159
21.36000 543.158
21.53000 546.692
21.70000 578.528
21.87000 706.470
22.04000 833.846
22.21000 682.603
22.38000 558.062
22.55000 540.146
22.72000 526.047
22.89000 521.807
23.06000 521.913
23.23000 545.161
23.40000 516.817
23.57000 519.056
23.74000 511.028
23.91000 488.967
24.08000 496.195
24.25000 494.570
24.42000 511.736
24.59000 490.970
24.76000 479.725
24.93000 481.451
25.10000 488.755
25.27000 480.670
25.44000 474.404
25.61000 459.381
25.78000 472.183
25.95000 465.689
26.12000 455.454
26.29000 466.467
26.46000 453.907
26.63000 475.947
26.80000 444.204
26.97000 451.951
27.14000 436.461
27.31000 459.311
27.48000 432.451
27.65000 445.396
27.82000 453.455
27.99000 421.193
28.16000 461.007
28.33000 433.885
28.50000 434.754
28.67000 415.677
28.84000 427.326
29.01000 419.594
29.18000 418.845
29.35000 406.329
29.52000 426.124
29.69000 410.681
29.86000 457.693
30.03000 466.603
30.20000 442.858
30.37000 433.786
30.54000 434.969
30.71000 487.605
30.88000 492.911
31.05000 767.807
31.22000 2443.071
31.39000 4072.630
31.56000 1652.659
31.73000 581.070
31.90000 431.803
32.07000 420.090
32.24000 422.202
32.41000 386.541
32.58000 390.984
32.75000 394.731
32.92000 448.929
33.09000 420.840
33.26000 366.111
33.43000 347.616
33.60000 336.423
33.77000 341.370
33.94000 333.448
34.11000 330.772
34.28000 341.193
34.45000 332.949
34.62000 328.029
34.79000 325.642
34.96000 316.281
35.13000 323.882
35.30000 323.242
35.47000 317.574
35.64000 320.169
35.81000 312.138
35.98000 292.109
36.15000 301.116
36.32000 296.658
36.49000 300.914
36.66000 312.627
36.83000 298.672
37.00000 306.387
37.17000 293.183
37.34000 301.725
37.51000 315.651
37.68000 274.287
37.85000 288.638
38.02000 296.036
38.19000 301.952
38.36000 352.279
38.53000 514.549
38.70000 805.108
38.87000 557.613
39.04000 322.667
39.21000 276.962
39.38000 274.995
39.55000 261.343
39.72000 259.586
39.89000 275.707
40.06000 256.425
40.23000 251.438
40.40000 251.365
40.57000 258.411
40.74000 262.926
40.91000 236.926
41.08000 254.245
41.25000 241.826
41.42000 247.818
41.59000 246.593
41.76000 231.040
41.93000 244.551
42.10000 241.980
42.27000 238.680
42.44000 233.748
42.61000 232.602
42.78000 221.785
42.95000 242.215
43.12000 225.818
43.29000 215.275
43.46000 226.423
43.63000 226.974
43.80000 235.128
43.97000 230.522
44.14000 227.350
44.31000 232.297
44.48000 222.652
44.65000 244.510
44.82000 314.662
44.99000 427.773
45.16000 424.566
45.33000 306.147
45.50000 237.501
45.67000 219.686
45.84000 213.974
46.01000 184.761
46.18000 215.442
46.35000 208.779
46.52000 211.052
46.69000 189.717
46.86000 206.520
47.03000 181.220
47.20000 209.195
47.37000 190.209
47.54000 189.777
47.71000 183.591
47.88000 190.824
48.05000 192.532
48.22000 183.295
48.39000 177.521
48.56000 181.215
48.73000 171.587
48.90000 186.305
49.07000 184.654
49.24000 185.521
49.41000 181.884
49.58000 169.848
49.75000 185.194
49.92000 183.322
50.09000 179.782
50.26000 193.101
50.43000 214.898
50.60000 264.072
50.77000 267.239
50.94000 213.372
51.11000 188.636
51.28000 166.349
51.45000 176.117
51.62000 167.763
51.79000 165.714
51.96000 162.091
52.13000 152.953
52.30000 166.453
52.47000 163.925
52.64000 172.179
52.81000 155.838
52.98000 156.114
53.15000 163.484
53.32000 160.355
53.49000 166.993
53.66000 159.558
53.83000 156.090
54.00000 151.308
54.17000 153.897
54.34000 161.246
54.51000 152.417
54.68000 176.743
54.85000 153.273
55.02000 172.779
55.19000 153.804
55.36000 171.933
55.53000 203.659
55.70000 370.905
55.87000 632.512
56.04000 579.704
56.21000 310.338
56.38000 193.997
56.55000 165.815
56.72000 155.274
56.89000 157.391
57.06000 148.071
57.23000 150.191
57.40000 145.035
57.57000 147.202
57.74000 142.835
57.91000 134.450
58.08000 151.139
58.25000 134.711
58.42000 136.733
58.59000 135.231
58.76000 128.482
58.93000 124.257
59.10000 129.754
59.27000 135.124
59.44000 144.771
59.61000 139.867
59.78000 132.169
59.95000 137.832
60.12000 129.487
60.29000 130.335
60.46000 127.005
60.63000 135.315
60.80000 130.497
60.97000 127.847
61.14000 138.729
61.31000 136.875
61.48000 158.421
61.65000 320.494
61.82000 204.794
61.99000 142.634
62.16000 150.814
62.33000 136.602
62.50000 128.303
62.67000 138.392
62.84000 147.780
63.01000 151.620
63.18000 149.006
63.35000 148.571
63.52000 142.406
63.69000 152.937
63.86000 168.363
64.03000 146.171
64.20000 166.083
64.37000 159.272
64.54000 181.408
64.71000 177.701
64.88000 186.115
65.05000 199.425
65.22000 258.218
65.39000 368.693
65.56000 499.455
65.73000 852.139
65.90000 1293.078
66.07000 381.918
66.24000 347.663
66.41000 488.124
66.58000 359.643
66.75000 338.632
66.92000 358.512
67.09000 362.199
67.26000 407.047
67.43000 439.548
67.60000 463.392
67.77000 492.449
67.94000 560.620
68.11000 611.860
68.28000 707.360
68.45000 819.661
68.62000 1248.487
68.79000 2346.417
68.96000 21803.471
69.13000 77546.367
69.30000 43191.137
69.47000 8478.028
69.64000 1411.253
69.81000 946.224
69.98000 769.292
70.00000 760.456

File: BTO_Mapping_Theta2Theta_30-09-2025_001_08_27-406_12-202.xy
20.00000 572.466
20.17000 558.733
20.34000 580.424
20.51000 552.339
20.68000 551.317
20.85000 550.260
21.02000 554.181
21.19000 555.658
21.36000 535.266
21.53000 556.653
21.70000 561.278
21.87000 626.401
22.04000 713.989
22.21000 641.510
22.38000 554.946
22.55000 546.291
22.72000 521.134
22.89000 515.219
23.06000 508.086
23.23000 514.854
23.40000 514.136
23.57000 504.935
23.74000 521.231
23.91000 521.132
24.08000 511.043
24.25000 508.648
24.42000 491.958
24.59000 481.162
24.76000 499.277
24.93000 476.156
25.10000 453.081
25.27000 479.299
25.44000 466.422
25.61000 463.640
25.78000 462.237
25.95000 446.914
26.12000 459.431
26.29000 473.710
26.46000 460.610
26.63000 464.116
26.80000 445.585
26.97000 444.178
27.14000 446.916
27.31000 448.332
27.48000 436.875
27.65000 453.882
27.82000 437.873
27.99000 433.781
28.16000 430.388
28.33000 411.549
28.50000 431.371
28.67000 422.860
28.84000 442.131
29.01000 399.676
29.18000 402.069
29.35000 430.369
29.52000 431.232
29.69000 429.176
29.86000 435.299
30.03000 438.232
30.20000 436.957
30.37000 421.754
30.54000 436.068
30.71000 439.895
30.88000 483.528
31.05000 689.269
31.22000 1926.999
31.39000 3604.065
31.56000 1660.616
31.73000 571.378
31.90000 439.347
32.07000 408.177
32.24000 400.906
32.41000 389.450
32.58000 373.519
32.75000 372.236
32.92000 402.402
33.09000 394.307
33.26000 352.565
33.43000 346.946
33.60000 336.021
33.77000 347.703
33.94000 347.369
34.11000 337.794
34.28000 345.558
34.45000 350.531
34.62000 342.736
34.79000 325.851
34.96000 331.175
35.13000 321.376
35.30000 298.384
35.47000 307.552
35.64000 294.281
35.81000 313.049
35.98000 295.004
36.15000 308.894
36.32000 306.698
36.49000 305.071
36.66000 301.868
36.83000 298.093
37.00000 289.687
37.17000 304.709
37.34000 305.978
37.51000 296.175
37.68000 295.061
37.85000 297.663
38.02000 298.184
38.19000 303.913
38.36000 341.096
38.53000 536.276
38.70000 922.379
38.87000 705.787
39.04000 325.898
39.21000 282.187
39.38000 280.358
39.55000 271.239
39.72000 275.102
39.89000 270.088
40.06000 262.651
40.23000 254.627
40.40000 262.355
40.57000 258.958
40.74000 255.323
40.91000 254.658
41.08000 254.196
41.25000 238.301
41.42000 245.828
41.59000 246.692
41.76000 256.304
41.93000 228.251
42.10000 246.913
42.27000 230.550
42.44000 228.131
42.61000 235.359
42.78000 234.340
42.95000 219.267
43.12000 226.177
43.29000 225.107
43.46000 217.539
43.63000 236.837
43.80000 219.704
43.97000 222.240
44.14000 222.135
44.31000 232.094
44.48000 232.124
44.65000 239.682
44.82000 265.150
44.99000 360.508
45.16000 373.832
45.33000 300.277
45.50000 253.115
45.67000 216.839
45.84000 208.740
46.01000 221.213
46.18000 202.168
46.35000 204.978
46.52000 204.785
46.69000 204.253
46.86000 191.182
47.03000 192.130
47.20000 187.452
47.37000 192.881
47.54000 191.519
47.71000 183.124
47.88000 188.699
48.05000 187.378
48.22000 182.466
48.39000 185.748
48.56000 177.436
48.73000 183.668
48.90000 175.391
49.07000 187.479
49.24000 174.589
49.41000 181.587
49.58000 181.228
49.75000 185.941
49.92000 182.103
50.09000 188.368
50.26000 184.110
50.43000 205.343
50.60000 259.495
50.77000 270.655
50.94000 216.832
51.11000 183.423
51.28000 172.835
51.45000 181.904
51.62000 176.827
51.79000 163.771
51.96000 170.544
52.13000 174.896
52.30000 163.983
52.47000 162.040
52.64000 160.585
52.81000 150.934
52.98000 165.252
53.15000 159.592
53.32000 164.866
53.49000 169.464
53.66000 162.046
53.83000 170.889
54.00000 164.110
54.17000 149.264
54.34000 162.656
54.51000 157.165
54.68000 166.058
54.85000 158.620
55.02000 150.250
55.19000 166.780
55.36000 165.316
55.53000 212.697
55.70000 303.285
55.87000 587.175
56.04000 606.679
56.21000 332.576
56.38000 185.445
56.55000 152.921
56.72000 152.564
56.89000 152.674
57.06000 142.362
57.23000 139.156
57.40000 150.331
57.57000 157.633
57.74000 144.942
57.91000 151.686
58.08000 147.506
58.25000 138.661
58.42000 132.351
58.59000 130.271
58.76000 134.549
58.93000 126.356
59.10000 129.837
59.27000 132.711
59.44000 126.785
59.61000 128.260
59.78000 130.288
59.95000 144.245
60.12000 135.221
60.29000 137.712
60.46000 134.586
60.63000 133.107
60.80000 123.949
60.97000 142.334
61.14000 144.182
61.31000 136.576
61.48000 153.525
61.65000 281.002
61.82000 188.588
61.99000 140.750
62.16000 142.857
62.33000 148.591
62.50000 149.626
62.67000 143.974
62.84000 137.740
63.01000 143.818
63.18000 145.495
63.35000 143.039
63.52000 159.137
63.69000 157.260
63.86000 153.929
64.03000 153.372
64.20000 171.829
64.37000 164.658
64.54000 177.755
64.71000 179.806
64.88000 184.634
65.05000 201.590
65.22000 246.235
65.39000 324.729
65.56000 420.179
65.73000 772.092
65.90000 1099.932
66.07000 361.059
66.24000 322.455
66.41000 445.484
66.58000 338.293
66.75000 333.023
66.92000 327.596
67.09000 360.401
67.26000 387.629
67.43000 408.871
67.60000 425.246
67.77000 479.618
67.94000 520.831
68.11000 585.218
68.28000 648.917
68.45000 756.391
68.62000 1110.148
68.79000 2044.906
68.96000 16408.342
69.13000 64359.621
69.30000 36326.422
69.47000 7298.973
69.64000 1262.510
69.81000 829.895
69.98000 711.164
70.00000 692.838