Folder: Master-Thesis/XRD/XRD/30-09-2025 Dep 1/XY Data (part 7)

File: BTO_Mapping_Theta2Theta_30-09-2025_001_54_6-691_-7-431.xy
20.00000 591.459
20.17000 579.298
20.34000 545.388
20.51000 565.177
20.68000 565.644
20.85000 549.755
21.02000 559.859
21.19000 549.088
21.36000 571.076
21.53000 538.125
21.70000 601.182
21.87000 722.305
22.04000 897.045
22.21000 686.639
22.38000 566.409
22.55000 533.783
22.72000 530.859
22.89000 522.988
23.06000 516.844
23.23000 520.107
23.40000 502.499
23.57000 524.850
23.74000 508.819
23.91000 503.185
24.08000 486.090
24.25000 490.156
24.42000 509.735
24.59000 481.885
24.76000 498.010
24.93000 474.580
25.10000 489.418
25.27000 477.646
25.44000 483.151
25.61000 471.812
25.78000 489.454
25.95000 477.928
26.12000 484.947
26.29000 451.256
26.46000 457.627
26.63000 478.451
26.80000 461.056
26.97000 456.499
27.14000 450.526
27.31000 452.686
27.48000 459.410
27.65000 446.754
27.82000 433.493
27.99000 435.759
28.16000 450.800
28.33000 447.192
28.50000 425.256
28.67000 426.042
28.84000 429.013
29.01000 423.410
29.18000 424.117
29.35000 437.396
29.52000 437.336
29.69000 408.152
29.86000 451.767
30.03000 460.339
30.20000 448.434
30.37000 446.130
30.54000 437.191
30.71000 475.952
30.88000 513.669
31.05000 762.664
31.22000 2417.895
31.39000 3871.154
31.56000 1528.672
31.73000 560.007
31.90000 454.886
32.07000 440.315
32.24000 412.708
32.41000 399.413
32.58000 401.243
32.75000 376.889
32.92000 459.482
33.09000 464.516
33.26000 359.433
33.43000 354.309
33.60000 347.915
33.77000 352.423
33.94000 360.910
34.11000 329.635
34.28000 346.331
34.45000 336.594
34.62000 344.605
34.79000 336.761
34.96000 328.470
35.13000 323.434
35.30000 315.265
35.47000 302.603
35.64000 297.899
35.81000 314.910
35.98000 300.517
36.15000 313.307
36.32000 309.459
36.49000 305.027
36.66000 315.486
36.83000 306.815
37.00000 307.947
37.17000 304.731
37.34000 299.590
37.51000 280.154
37.68000 289.069
37.85000 309.569
38.02000 283.746
38.19000 307.443
38.36000 349.626
38.53000 493.901
38.70000 733.876
38.87000 484.822
39.04000 317.401
39.21000 285.614
39.38000 291.344
39.55000 284.064
39.72000 268.808
39.89000 263.373
40.06000 267.092
40.23000 253.298
40.40000 258.960
40.57000 259.780
40.74000 261.614
40.91000 257.904
41.08000 243.200
41.25000 251.832
41.42000 248.583
41.59000 240.766
41.76000 256.269
41.93000 239.441
42.10000 247.726
42.27000 224.936
42.44000 225.347
42.61000 231.030
42.78000 226.578
42.95000 234.264
43.12000 228.065
43.29000 224.852
43.46000 240.227
43.63000 216.234
43.80000 213.217
43.97000 206.073
44.14000 231.828
44.31000 236.607
44.48000 232.792
44.65000 256.873
44.82000 328.488
44.99000 525.595
45.16000 433.708
45.33000 284.693
45.50000 240.849
45.67000 221.189
45.84000 211.700
46.01000 200.159
46.18000 203.847
46.35000 200.739
46.52000 201.619
46.69000 207.699
46.86000 201.395
47.03000 201.274
47.20000 195.443
47.37000 201.195
47.54000 197.405
47.71000 200.728
47.88000 191.680
48.05000 192.050
48.22000 187.208
48.39000 200.815
48.56000 184.367
48.73000 200.109
48.90000 187.706
49.07000 185.097
49.24000 179.431
49.41000 174.068
49.58000 177.788
49.75000 186.866
49.92000 186.235
50.09000 187.308
50.26000 197.931
50.43000 216.019
50.60000 290.357
50.77000 270.515
50.94000 205.970
51.11000 179.558
51.28000 184.274
51.45000 161.107
51.62000 179.187
51.79000 156.699
51.96000 157.675
52.13000 177.331
52.30000 161.530
52.47000 163.343
52.64000 156.695
52.81000 170.621
52.98000 171.992
53.15000 155.861
53.32000 171.545
53.49000 166.376
53.66000 164.229
53.83000 159.206
54.00000 156.435
54.17000 159.486
54.34000 162.517
54.51000 151.968
54.68000 156.193
54.85000 165.465
55.02000 153.307
55.19000 166.302
55.36000 178.362
55.53000 224.848
55.70000 409.721
55.87000 654.082
56.04000 528.222
56.21000 284.660
56.38000 188.269
56.55000 159.091
56.72000 162.799
56.89000 141.688
57.06000 148.653
57.23000 149.047
57.40000 144.910
57.57000 142.163
57.74000 148.391
57.91000 151.649
58.08000 132.781
58.25000 147.797
58.42000 144.639
58.59000 144.423
58.76000 148.023
58.93000 134.534
59.10000 139.702
59.27000 133.958
59.44000 134.449
59.61000 146.864
59.78000 131.959
59.95000 141.044
60.12000 135.615
60.29000 129.051
60.46000 136.801
60.63000 135.704
60.80000 134.870
60.97000 141.325
61.14000 144.323
61.31000 131.969
61.48000 149.589
61.65000 314.126
61.82000 223.297
61.99000 140.426
62.16000 139.068
62.33000 154.385
62.50000 138.645
62.67000 135.333
62.84000 142.977
63.01000 155.812
63.18000 144.736
63.35000 158.349
63.52000 148.089
63.69000 151.027
63.86000 146.673
64.03000 165.056
64.20000 159.780
64.37000 165.686
64.54000 176.136
64.71000 171.072
64.88000 192.021
65.05000 206.011
65.22000 253.795
65.39000 380.563
65.56000 472.694
65.73000 784.710
65.90000 1314.589
66.07000 406.023
66.24000 344.030
66.41000 493.575
66.58000 374.388
66.75000 343.713
66.92000 369.069
67.09000 386.820
67.26000 398.285
67.43000 440.385
67.60000 468.849
67.77000 514.920
67.94000 566.924
68.11000 610.852
68.28000 686.751
68.45000 824.549
68.62000 1151.569
68.79000 2319.897
68.96000 17336.818
69.13000 78287.531
69.30000 46221.047
69.47000 10705.335
69.64000 1459.243
69.81000 958.388
69.98000 810.377
70.00000 805.439

File: BTO_Mapping_Theta2Theta_30-09-2025_001_56_20-074_-22-294.xy
20.00000 559.309
20.17000 567.659
20.34000 581.683
20.51000 558.776
20.68000 571.646
20.85000 569.687
21.02000 580.242
21.19000 553.376
21.36000 568.635
21.53000 563.797
21.70000 666.238
21.87000 946.732
22.04000 997.041
22.21000 662.974
22.38000 575.609
22.55000 551.614
22.72000 524.689
22.89000 539.596
23.06000 514.057
23.23000 517.369
23.40000 515.470
23.57000 523.230
23.74000 519.739
23.91000 510.496
24.08000 498.359
24.25000 519.382
24.42000 518.905
24.59000 498.401
24.76000 497.735
24.93000 496.406
25.10000 488.790
25.27000 493.341
25.44000 468.513
25.61000 468.146
25.78000 486.451
25.95000 464.369
26.12000 467.993
26.29000 488.226
26.46000 463.017
26.63000 471.757
26.80000 453.336
26.97000 476.433
27.14000 455.120
27.31000 458.897
27.48000 472.845
27.65000 460.167
27.82000 439.851
27.99000 447.988
28.16000 446.962
28.33000 444.732
28.50000 438.391
28.67000 445.122
28.84000 450.089
29.01000 443.678
29.18000 454.364
29.35000 421.072
29.52000 428.854
29.69000 437.938
29.86000 476.076
30.03000 472.964
30.20000 456.036
30.37000 461.783
30.54000 452.915
30.71000 478.528
30.88000 572.260
31.05000 1469.077
31.22000 4049.750
31.39000 3028.147
31.56000 861.406
31.73000 509.989
31.90000 446.840
32.07000 394.210
32.24000 410.927
32.41000 392.430
32.58000 389.286
32.75000 377.138
32.92000 465.686
33.09000 434.541
33.26000 376.078
33.43000 363.123
33.60000 347.525
33.77000 347.010
33.94000 346.662
34.11000 317.085
34.28000 350.003
34.45000 337.193
34.62000 321.161
34.79000 334.469
34.96000 325.858
35.13000 323.689
35.30000 320.512
35.47000 320.286
35.64000 313.690
35.81000 291.349
35.98000 325.900
36.15000 322.304
36.32000 304.778
36.49000 307.991
36.66000 295.697
36.83000 319.435
37.00000 298.309
37.17000 309.754
37.34000 289.669
37.51000 309.017
37.68000 319.859
37.85000 288.565
38.02000 305.665
38.19000 302.481
38.36000 363.266
38.53000 491.276
38.70000 476.133
38.87000 344.927
39.04000 290.507
39.21000 291.277
39.38000 286.812
39.55000 275.386
39.72000 266.066
39.89000 277.394
40.06000 288.083
40.23000 264.941
40.40000 255.868
40.57000 256.704
40.74000 264.829
40.91000 253.480
41.08000 237.831
41.25000 264.319
41.42000 249.355
41.59000 250.992
41.76000 259.051
41.93000 256.592
42.10000 258.061
42.27000 239.434
42.44000 231.818
42.61000 237.898
42.78000 252.926
42.95000 241.338
43.12000 229.257
43.29000 226.123
43.46000 236.547
43.63000 235.279
43.80000 221.098
43.97000 236.360
44.14000 225.363
44.31000 244.294
44.48000 268.405
44.65000 374.961
44.82000 583.265
44.99000 628.709
45.16000 407.336
45.33000 270.576
45.50000 256.543
45.67000 229.917
45.84000 217.987
46.01000 214.492
46.18000 219.178
46.35000 204.301
46.52000 207.661
46.69000 196.820
46.86000 215.407
47.03000 190.779
47.20000 203.157
47.37000 187.537
47.54000 197.546
47.71000 198.819
47.88000 205.964
48.05000 190.148
48.22000 196.611
48.39000 183.896
48.56000 196.895
48.73000 182.166
48.90000 191.213
49.07000 176.810
49.24000 178.805
49.41000 177.156
49.58000 176.545
49.75000 183.553
49.92000 187.405
50.09000 197.587
50.26000 195.893
50.43000 278.867
50.60000 295.540
50.77000 234.807
50.94000 195.144
51.11000 187.918
51.28000 171.361
51.45000 164.077
51.62000 177.976
51.79000 171.221
51.96000 185.158
52.13000 171.669
52.30000 161.840
52.47000 169.746
52.64000 171.856
52.81000 158.035
52.98000 156.191
53.15000 169.130
53.32000 164.831
53.49000 161.594
53.66000 162.933
53.83000 163.914
54.00000 154.921
54.17000 162.304
54.34000 156.522
54.51000 156.711
54.68000 152.041
54.85000 158.100
55.02000 171.219
55.19000 184.932
55.36000 223.965
55.53000 356.183
55.70000 580.495
55.87000 538.535
56.04000 335.329
56.21000 209.345
56.38000 185.210
56.55000 166.152
56.72000 167.502
56.89000 149.024
57.06000 147.401
57.23000 159.343
57.40000 150.013
57.57000 146.836
57.74000 147.664
57.91000 147.991
58.08000 152.742
58.25000 138.432
58.42000 144.284
58.59000 133.685
58.76000 131.185
58.93000 138.369
59.10000 130.717
59.27000 123.961
59.44000 147.294
59.61000 140.661
59.78000 134.941
59.95000 127.798
60.12000 132.658
60.29000 139.336
60.46000 137.162
60.63000 127.441
60.80000 134.951
60.97000 126.556
61.14000 145.163
61.31000 144.681
61.48000 166.450
61.65000 341.660
61.82000 217.349
61.99000 144.914
62.16000 147.018
62.33000 154.496
62.50000 146.415
62.67000 157.001
62.84000 159.155
63.01000 146.106
63.18000 155.891
63.35000 152.754
63.52000 148.507
63.69000 160.746
63.86000 160.458
64.03000 171.651
64.20000 163.416
64.37000 162.289
64.54000 177.482
64.71000 175.680
64.88000 203.246
65.05000 252.593
65.22000 400.226
65.39000 438.640
65.56000 387.171
65.73000 818.915
65.90000 1393.018
66.07000 415.667
66.24000 350.759
66.41000 518.753
66.58000 376.486
66.75000 340.292
66.92000 381.594
67.09000 395.445
67.26000 406.165
67.43000 456.525
67.60000 489.817
67.77000 501.437
67.94000 580.980
68.11000 626.822
68.28000 720.796
68.45000 863.957
68.62000 1260.631
68.79000 2467.386
68.96000 22871.801
69.13000 85274.141
69.30000 48930.781
69.47000 10340.935
69.64000 1547.174
69.81000 981.068
69.98000 782.159
70.00000 773.974

File: BTO_Mapping_Theta2Theta_30-09-2025_001_57_26-765_-29-726.xy
20.00000 589.187
20.17000 589.813
20.34000 561.105
20.51000 562.773
20.68000 575.956
20.85000 564.169
21.02000 561.000
21.19000 554.204
21.36000 562.795
21.53000 604.728
21.70000 719.340
21.87000 1060.629
22.04000 984.396
22.21000 683.687
22.38000 600.778
22.55000 537.647
22.72000 537.394
22.89000 535.579
23.06000 513.444
23.23000 540.057
23.40000 536.615
23.57000 532.203
23.74000 532.931
23.91000 504.349
24.08000 506.861
24.25000 505.919
24.42000 512.619
24.59000 513.790
24.76000 507.254
24.93000 504.195
25.10000 491.204
25.27000 496.594
25.44000 493.269
25.61000 483.952
25.78000 482.602
25.95000 484.419
26.12000 487.494
26.29000 466.852
26.46000 469.607
26.63000 471.148
26.80000 468.195
26.97000 454.017
27.14000 469.881
27.31000 461.866
27.48000 465.504
27.65000 465.561
27.82000 447.240
27.99000 440.593
28.16000 440.612
28.33000 447.337
28.50000 450.823
28.67000 438.733
28.84000 433.829
29.01000 441.278
29.18000 437.119
29.35000 444.072
29.52000 439.344
29.69000 465.289
29.86000 487.610
30.03000 461.434
30.20000 453.774
30.37000 452.533
30.54000 486.243
30.71000 516.664
30.88000 694.362
31.05000 2320.534
31.22000 4451.498
31.39000 2332.716
31.56000 740.736
31.73000 507.156
31.90000 459.536
32.07000 445.168
32.24000 396.647
32.41000 418.526
32.58000 393.871
32.75000 398.260
32.92000 459.321
33.09000 476.822
33.26000 364.901
33.43000 363.622
33.60000 362.839
33.77000 357.155
33.94000 358.062
34.11000 355.524
34.28000 344.458
34.45000 313.675
34.62000 339.610
34.79000 323.704
34.96000 326.830
35.13000 327.854
35.30000 334.881
35.47000 334.589
35.64000 311.423
35.81000 304.437
35.98000 300.730
36.15000 310.521
36.32000 320.044
36.49000 314.727
36.66000 322.979
36.83000 325.127
37.00000 320.114
37.17000 304.913
37.34000 320.735
37.51000 291.041
37.68000 301.238
37.85000 305.457
38.02000 310.882
38.19000 327.186
38.36000 392.402
38.53000 464.117
38.70000 397.786
38.87000 305.527
39.04000 294.344
39.21000 282.748
39.38000 284.534
39.55000 265.159
39.72000 276.707
39.89000 263.937
40.06000 274.225
40.23000 262.108
40.40000 279.320
40.57000 252.570
40.74000 256.524
40.91000 253.457
41.08000 242.175
41.25000 261.721
41.42000 261.665
41.59000 250.259
41.76000 254.544
41.93000 245.134
42.10000 241.100
42.27000 227.980
42.44000 239.483
42.61000 255.450
42.78000 242.592
42.95000 253.849
43.12000 235.649
43.29000 257.077
43.46000 236.602
43.63000 229.906
43.80000 246.366
43.97000 248.439
44.14000 249.771
44.31000 261.054
44.48000 340.754
44.65000 549.641
44.82000 733.009
44.99000 616.509
45.16000 416.752
45.33000 303.852
45.50000 261.902
45.67000 232.990
45.84000 227.267
46.01000 214.749
46.18000 222.980
46.35000 213.462
46.52000 216.797
46.69000 200.025
46.86000 218.163
47.03000 205.292
47.20000 204.842
47.37000 191.450
47.54000 199.329
47.71000 200.978
47.88000 187.678
48.05000 194.607
48.22000 192.937
48.39000 188.958
48.56000 189.592
48.73000 182.293
48.90000 177.118
49.07000 193.418
49.24000 189.867
49.41000 181.538
49.58000 186.106
49.75000 180.595
49.92000 184.530
50.09000 205.270
50.26000 242.382
50.43000 297.138
50.60000 282.151
50.77000 227.747
50.94000 187.572
51.11000 186.020
51.28000 181.477
51.45000 165.808
51.62000 171.121
51.79000 171.636
51.96000 177.815
52.13000 173.448
52.30000 167.077
52.47000 176.760
52.64000 153.755
52.81000 175.992
52.98000 163.618
53.15000 173.265
53.32000 169.993
53.49000 167.010
53.66000 170.750
53.83000 163.111
54.00000 157.195
54.17000 168.264
54.34000 165.333
54.51000 167.833
54.68000 152.245
54.85000 167.888
55.02000 171.190
55.19000 194.197
55.36000 248.727
55.53000 443.072
55.70000 544.666
55.87000 431.067
56.04000 263.257
56.21000 204.574
56.38000 176.132
56.55000 153.869
56.72000 168.629
56.89000 156.788
57.06000 146.897
57.23000 146.945
57.40000 144.961
57.57000 148.896
57.74000 151.862
57.91000 144.125
58.08000 134.499
58.25000 138.875
58.42000 146.499
58.59000 133.881
58.76000 139.354
58.93000 129.084
59.10000 135.292
59.27000 138.566
59.44000 142.755
59.61000 150.416
59.78000 131.947
59.95000 129.776
60.12000 131.244
60.29000 135.622
60.46000 138.374
60.63000 130.068
60.80000 134.919
60.97000 145.531
61.14000 149.681
61.31000 144.751
61.48000 158.884
61.65000 355.975
61.82000 220.105
61.99000 159.775
62.16000 152.150
62.33000 145.678
62.50000 153.282
62.67000 143.696
62.84000 151.237
63.01000 147.169
63.18000 162.316
63.35000 147.530
63.52000 154.693
63.69000 147.667
63.86000 174.264
64.03000 170.093
64.20000 164.928
64.37000 175.589
64.54000 175.810
64.71000 191.307
64.88000 227.055
65.05000 328.178
65.22000 423.120
65.39000 393.508
65.56000 360.334
65.73000 867.248
65.90000 1407.517
66.07000 418.715
66.24000 349.650
66.41000 560.271
66.58000 376.210
66.75000 354.250
66.92000 371.342
67.09000 414.478
67.26000 422.954
67.43000 480.428
67.60000 508.727
67.77000 554.839
67.94000 604.244
68.11000 673.363
68.28000 729.243
68.45000 890.772
68.62000 1310.450
68.79000 2704.586
68.96000 26547.930
69.13000 91578.367
69.30000 51987.098
69.47000 10651.222
69.64000 1611.927
69.81000 1054.680
69.98000 808.429
70.00000 813.090

File: BTO_Mapping_Theta2Theta_30-09-2025_001_58_9-135_-4-067.xy
20.00000 579.765
20.17000 597.949
20.34000 582.063
20.51000 566.115
20.68000 569.752
20.85000 557.889
21.02000 561.673
21.19000 543.363
21.36000 567.217
21.53000 559.540
21.70000 571.792
21.87000 733.719
22.04000 871.031
22.21000 697.598
22.38000 570.379
22.55000 540.661
22.72000 556.957
22.89000 524.136
23.06000 515.330
23.23000 526.729
23.40000 495.473
23.57000 512.402
23.74000 506.327
23.91000 494.735
24.08000 495.058
24.25000 490.715
24.42000 502.906
24.59000 472.738
24.76000 510.258
24.93000 482.479
25.10000 482.702
25.27000 470.399
25.44000 479.295
25.61000 472.960
25.78000 468.528
25.95000 470.180
26.12000 479.160
26.29000 465.303
26.46000 473.409
26.63000 456.281
26.80000 450.044
26.97000 452.702
27.14000 436.532
27.31000 454.419
27.48000 440.322
27.65000 459.206
27.82000 459.412
27.99000 437.670
28.16000 441.603
28.33000 434.672
28.50000 426.503
28.67000 439.998
28.84000 423.593
29.01000 421.025
29.18000 434.634
29.35000 409.605
29.52000 419.316
29.69000 422.265
29.86000 446.364
30.03000 451.524
30.20000 442.509
30.37000 437.320
30.54000 444.011
30.71000 465.990
30.88000 522.148
31.05000 770.156
31.22000 2317.139
31.39000 3922.895
31.56000 1588.056
31.73000 576.016
31.90000 459.476
32.07000 425.888
32.24000 422.558
32.41000 412.596
32.58000 379.994
32.75000 370.832
32.92000 441.853
33.09000 445.291
33.26000 370.439
33.43000 351.185
33.60000 336.210
33.77000 355.808
33.94000 336.257
34.11000 338.727
34.28000 337.301
34.45000 333.064
34.62000 331.055
34.79000 331.471
34.96000 330.893
35.13000 332.601
35.30000 320.359
35.47000 318.572
35.64000 306.707
35.81000 312.332
35.98000 321.852
36.15000 300.365
36.32000 311.123
36.49000 294.365
36.66000 302.586
36.83000 298.999
37.00000 306.666
37.17000 308.874
37.34000 312.841
37.51000 307.202
37.68000 281.009
37.85000 290.316
38.02000 295.085
38.19000 309.741
38.36000 340.535
38.53000 512.861
38.70000 774.916
38.87000 524.081
39.04000 323.369
39.21000 292.993
39.38000 279.623
39.55000 277.976
39.72000 264.784
39.89000 274.115
40.06000 265.093
40.23000 260.420
40.40000 259.746
40.57000 272.054
40.74000 254.317
40.91000 263.364
41.08000 250.126
41.25000 244.949
41.42000 246.100
41.59000 249.442
41.76000 230.762
41.93000 237.918
42.10000 222.223
42.27000 229.368
42.44000 253.888
42.61000 235.869
42.78000 242.539
42.95000 231.899
43.12000 230.899
43.29000 219.869
43.46000 228.031
43.63000 209.403
43.80000 227.036
43.97000 226.368
44.14000 233.683
44.31000 225.502
44.48000 231.669
44.65000 246.426
44.82000 333.539
44.99000 498.333
45.16000 431.479
45.33000 296.531
45.50000 241.717
45.67000 224.729
45.84000 219.932
46.01000 220.483
46.18000 206.830
46.35000 196.343
46.52000 198.923
46.69000 203.544
46.86000 191.828
47.03000 204.364
47.20000 190.826
47.37000 186.795
47.54000 190.792
47.71000 188.790
47.88000 180.746
48.05000 186.203
48.22000 185.976
48.39000 176.917
48.56000 179.005
48.73000 187.546
48.90000 177.045
49.07000 186.292
49.24000 172.259
49.41000 183.295
49.58000 179.774
49.75000 166.852
49.92000 173.483
50.09000 189.522
50.26000 189.531
50.43000 209.935
50.60000 282.332
50.77000 264.068
50.94000 213.319
51.11000 190.843
51.28000 181.007
51.45000 169.055
51.62000 155.780
51.79000 180.229
51.96000 172.592
52.13000 164.490
52.30000 172.830
52.47000 160.266
52.64000 156.647
52.81000 166.560
52.98000 158.278
53.15000 159.765
53.32000 176.042
53.49000 161.555
53.66000 158.730
53.83000 158.155
54.00000 151.575
54.17000 164.690
54.34000 161.770
54.51000 162.021
54.68000 160.091
54.85000 154.590
55.02000 164.823
55.19000 169.292
55.36000 184.204
55.53000 213.969
55.70000 373.688
55.87000 660.356
56.04000 539.649
56.21000 293.540
56.38000 173.593
56.55000 159.891
56.72000 169.841
56.89000 154.234
57.06000 146.797
57.23000 144.188
57.40000 154.218
57.57000 147.173
57.74000 144.348
57.91000 155.088
58.08000 158.914
58.25000 138.351
58.42000 146.563
58.59000 140.513
58.76000 142.189
58.93000 137.056
59.10000 133.958
59.27000 135.742
59.44000 139.333
59.61000 125.534
59.78000 130.472
59.95000 132.643
60.12000 138.900
60.29000 132.785
60.46000 134.279
60.63000 138.059
60.80000 138.975
60.97000 132.908
61.14000 139.257
61.31000 131.448
61.48000 155.123
61.65000 320.147
61.82000 223.074
61.99000 143.581
62.16000 138.311
62.33000 145.652
62.50000 146.791
62.67000 148.394
62.84000 141.504
63.01000 154.330
63.18000 153.945
63.35000 141.106
63.52000 148.891
63.69000 159.486
63.86000 154.755
64.03000 164.054
64.20000 161.308
64.37000 175.385
64.54000 171.024
64.71000 173.316
64.88000 191.743
65.05000 207.176
65.22000 249.187
65.39000 377.083
65.56000 461.751
65.73000 800.083
65.90000 1284.622
66.07000 415.340
66.24000 322.978
66.41000 510.527
66.58000 373.837
66.75000 323.840
66.92000 350.278
67.09000 388.420
67.26000 395.512
67.43000 420.287
67.60000 499.314
67.77000 511.418
67.94000 560.457
68.11000 618.904
68.28000 696.830
68.45000 787.756
68.62000 1193.840
68.79000 2282.850
68.96000 17198.264
69.13000 77273.680
69.30000 45486.621
69.47000 10415.413
69.64000 1498.326
69.81000 961.128
69.98000 765.362
70.00000 768.564

File: BTO_Mapping_Theta2Theta_30-09-2025_001_61_36-542_-16-269.xy
20.00000 577.615
20.17000 564.418
20.34000 563.479
20.51000 577.487
20.68000 558.552
20.85000 555.634
21.02000 551.545
21.19000 562.388
21.36000 572.800
21.53000 590.134
21.70000 615.406
21.87000 817.103
22.04000 859.855
22.21000 623.418
22.38000 552.304
22.55000 531.095
22.72000 525.916
22.89000 536.281
23.06000 528.969
23.23000 535.411
23.40000 542.578
23.57000 514.413
23.74000 517.134
23.91000 513.905
24.08000 497.772
24.25000 485.217
24.42000 519.364
24.59000 497.081
24.76000 494.502
24.93000 488.986
25.10000 497.148
25.27000 474.267
25.44000 474.839
25.61000 475.180
25.78000 473.631
25.95000 489.163
26.12000 469.281
26.29000 471.077
26.46000 477.575
26.63000 451.261
26.80000 459.514
26.97000 471.693
27.14000 459.135
27.31000 446.172
27.48000 436.625
27.65000 466.395
27.82000 458.983
27.99000 437.446
28.16000 453.761
28.33000 444.031
28.50000 435.752
28.67000 438.929
28.84000 406.593
29.01000 428.700
29.18000 435.990
29.35000 426.570
29.52000 427.830
29.69000 438.814
29.86000 457.544
30.03000 470.986
30.20000 433.868
30.37000 447.198
30.54000 458.680
30.71000 472.664
30.88000 541.382
31.05000 1156.368
31.22000 3843.810
31.39000 3724.784
31.56000 1083.083
31.73000 505.321
31.90000 456.373
32.07000 427.164
32.24000 416.593
32.41000 396.360
32.58000 380.927
32.75000 383.493
32.92000 466.686
33.09000 474.337
33.26000 354.576
33.43000 355.119
33.60000 337.941
33.77000 338.835
33.94000 341.324
34.11000 341.614
34.28000 332.048
34.45000 334.490
34.62000 322.590
34.79000 339.238
34.96000 326.101
35.13000 326.645
35.30000 331.383
35.47000 328.653
35.64000 325.853
35.81000 309.239
35.98000 313.055
36.15000 311.705
36.32000 319.628
36.49000 305.692
36.66000 300.381
36.83000 322.893
37.00000 315.050
37.17000 296.786
37.34000 292.484
37.51000 325.804
37.68000 300.473
37.85000 299.391
38.02000 298.709
38.19000 307.741
38.36000 356.602
38.53000 491.792
38.70000 586.415
38.87000 378.395
39.04000 293.711
39.21000 287.494
39.38000 268.493
39.55000 264.471
39.72000 269.847
39.89000 275.190
40.06000 274.337
40.23000 259.415
40.40000 268.404
40.57000 256.024
40.74000 236.459
40.91000 260.346
41.08000 248.472
41.25000 252.921
41.42000 246.107
41.59000 248.892
41.76000 251.835
41.93000 250.540
42.10000 229.495
42.27000 243.505
42.44000 254.259
42.61000 229.956
42.78000 227.007
42.95000 228.031
43.12000 240.696
43.29000 232.318
43.46000 222.033
43.63000 220.712
43.80000 225.676
43.97000 218.439
44.14000 231.841
44.31000 227.409
44.48000 252.496
44.65000 296.406
44.82000 453.817
44.99000 532.747
45.16000 398.332
45.33000 265.961
45.50000 237.265
45.67000 221.487
45.84000 222.851
46.01000 213.887
46.18000 218.023
46.35000 198.534
46.52000 213.488
46.69000 188.163
46.86000 197.660
47.03000 200.607
47.20000 194.030
47.37000 203.794
47.54000 191.919
47.71000 189.254
47.88000 193.963
48.05000 184.477
48.22000 177.891
48.39000 184.742
48.56000 182.802
48.73000 184.159
48.90000 184.616
49.07000 186.480
49.24000 185.737
49.41000 185.517
49.58000 188.961
49.75000 179.905
49.92000 173.044
50.09000 195.141
50.26000 204.806
50.43000 250.817
50.60000 297.738
50.77000 253.332
50.94000 203.203
51.11000 173.706
51.28000 177.660
51.45000 168.187
51.62000 162.719
51.79000 177.132
51.96000 168.315
52.13000 165.264
52.30000 173.156
52.47000 161.536
52.64000 156.102
52.81000 157.896
52.98000 165.242
53.15000 161.540
53.32000 169.105
53.49000 164.599
53.66000 154.893
53.83000 161.648
54.00000 161.325
54.17000 157.564
54.34000 153.526
54.51000 165.668
54.68000 159.882
54.85000 161.696
55.02000 168.527
55.19000 171.071
55.36000 184.963
55.53000 291.557
55.70000 556.558
55.87000 667.126
56.04000 426.266
56.21000 242.258
56.38000 177.819
56.55000 157.864
56.72000 157.662
56.89000 150.101
57.06000 150.973
57.23000 144.156
57.40000 147.161
57.57000 146.457
57.74000 153.927
57.91000 144.619
58.08000 141.300
58.25000 138.866
58.42000 142.877
58.59000 137.199
58.76000 138.954
58.93000 129.705
59.10000 149.233
59.27000 143.032
59.44000 144.760
59.61000 136.562
59.78000 133.462
59.95000 131.628
60.12000 136.729
60.29000 131.026
60.46000 127.185
60.63000 133.151
60.80000 133.088
60.97000 134.399
61.14000 138.123
61.31000 130.921
61.48000 151.816
61.65000 338.739
61.82000 205.278
61.99000 142.955
62.16000 141.510
62.33000 144.966
62.50000 138.918
62.67000 144.220
62.84000 140.674
63.01000 147.653
63.18000 143.482
63.35000 147.306
63.52000 149.480
63.69000 147.872
63.86000 148.448
64.03000 163.102
64.20000 160.244
64.37000 156.463
64.54000 168.546
64.71000 181.633
64.88000 198.111
65.05000 230.953
65.22000 325.348
65.39000 454.761
65.56000 447.588
65.73000 894.941
65.90000 1376.192
66.07000 412.678
66.24000 347.160
66.41000 524.180
66.58000 387.303
66.75000 353.953
66.92000 361.605
67.09000 384.205
67.26000 420.506
67.43000 443.269
67.60000 487.242
67.77000 535.018
67.94000 595.684
68.11000 624.443
68.28000 709.834
68.45000 844.513
68.62000 1314.022
68.79000 2544.499
68.96000 26117.441
69.13000 85154.180
69.30000 47182.852
69.47000 9154.275
69.64000 1495.743
69.81000 985.324
69.98000 806.733
70.00000 782.722