Folder: Master-Thesis/XRD/XRD/30-09-2025 Dep 1/XY Data (part 4)

File: BTO_Mapping_Theta2Theta_30-09-2025_001_29_-32-361_23-511.xy
20.00000 541.767
20.17000 575.066
20.34000 574.767
20.51000 542.904
20.68000 551.696
20.85000 555.343
21.02000 551.097
21.19000 526.302
21.36000 558.625
21.53000 551.512
21.70000 551.986
21.87000 608.972
22.04000 657.920
22.21000 661.817
22.38000 569.656
22.55000 530.004
22.72000 538.603
22.89000 515.442
23.06000 524.266
23.23000 537.016
23.40000 511.150
23.57000 505.779
23.74000 522.409
23.91000 535.750
24.08000 549.189
24.25000 505.913
24.42000 495.269
24.59000 485.462
24.76000 487.506
24.93000 478.074
25.10000 484.436
25.27000 480.936
25.44000 464.103
25.61000 455.729
25.78000 445.994
25.95000 460.063
26.12000 482.531
26.29000 453.588
26.46000 466.580
26.63000 452.579
26.80000 452.461
26.97000 443.312
27.14000 437.558
27.31000 444.280
27.48000 427.781
27.65000 447.999
27.82000 436.569
27.99000 424.328
28.16000 440.749
28.33000 427.841
28.50000 426.055
28.67000 432.273
28.84000 413.527
29.01000 415.904
29.18000 410.063
29.35000 402.086
29.52000 419.862
29.69000 383.478
29.86000 418.072
30.03000 420.831
30.20000 419.539
30.37000 420.349
30.54000 418.702
30.71000 432.188
30.88000 437.761
31.05000 514.017
31.22000 947.191
31.39000 1761.900
31.56000 1212.255
31.73000 546.734
31.90000 421.759
32.07000 401.736
32.24000 401.119
32.41000 369.804
32.58000 353.517
32.75000 375.465
32.92000 364.562
33.09000 388.702
33.26000 353.444
33.43000 352.129
33.60000 337.624
33.77000 358.427
33.94000 346.663
34.11000 345.779
34.28000 351.570
34.45000 363.676
34.62000 363.984
34.79000 326.893
34.96000 329.105
35.13000 323.673
35.30000 332.310
35.47000 323.654
35.64000 317.128
35.81000 310.650
35.98000 302.793
36.15000 308.773
36.32000 303.373
36.49000 306.027
36.66000 313.694
36.83000 293.516
37.00000 301.636
37.17000 295.774
37.34000 292.963
37.51000 292.274
37.68000 294.757
37.85000 289.484
38.02000 279.904
38.19000 293.507
38.36000 320.875
38.53000 455.687
38.70000 869.040
38.87000 818.308
39.04000 398.592
39.21000 307.824
39.38000 288.184
39.55000 265.270
39.72000 272.593
39.89000 283.244
40.06000 258.290
40.23000 252.676
40.40000 253.962
40.57000 266.746
40.74000 259.814
40.91000 250.319
41.08000 255.868
41.25000 258.534
41.42000 250.320
41.59000 233.897
41.76000 236.413
41.93000 233.500
42.10000 231.606
42.27000 247.281
42.44000 243.102
42.61000 234.922
42.78000 240.510
42.95000 230.431
43.12000 231.280
43.29000 227.463
43.46000 212.392
43.63000 216.174
43.80000 230.760
43.97000 222.439
44.14000 225.697
44.31000 232.871
44.48000 236.405
44.65000 231.598
44.82000 264.605
44.99000 309.346
45.16000 348.541
45.33000 298.629
45.50000 253.480
45.67000 236.961
45.84000 208.779
46.01000 205.646
46.18000 195.519
46.35000 206.321
46.52000 215.485
46.69000 205.367
46.86000 192.610
47.03000 200.485
47.20000 185.233
47.37000 197.199
47.54000 196.265
47.71000 189.159
47.88000 179.883
48.05000 188.053
48.22000 189.155
48.39000 190.950
48.56000 186.375
48.73000 174.971
48.90000 173.795
49.07000 177.046
49.24000 178.112
49.41000 188.066
49.58000 177.189
49.75000 160.535
49.92000 188.166
50.09000 181.067
50.26000 168.303
50.43000 200.450
50.60000 211.164
50.77000 217.947
50.94000 188.712
51.11000 176.973
51.28000 165.438
51.45000 160.925
51.62000 168.948
51.79000 160.500
51.96000 163.102
52.13000 150.555
52.30000 160.764
52.47000 152.371
52.64000 161.130
52.81000 155.299
52.98000 155.498
53.15000 169.689
53.32000 167.797
53.49000 162.479
53.66000 160.183
53.83000 155.607
54.00000 154.539
54.17000 153.950
54.34000 157.566
54.51000 156.594
54.68000 159.678
54.85000 151.741
55.02000 153.325
55.19000 159.766
55.36000 159.112
55.53000 188.835
55.70000 277.594
55.87000 464.692
56.04000 550.890
56.21000 343.176
56.38000 193.024
56.55000 173.308
56.72000 153.235
56.89000 149.642
57.06000 146.359
57.23000 149.204
57.40000 141.303
57.57000 130.337
57.74000 141.184
57.91000 133.531
58.08000 142.360
58.25000 139.996
58.42000 146.261
58.59000 139.624
58.76000 140.148
58.93000 141.007
59.10000 132.801
59.27000 138.375
59.44000 127.350
59.61000 123.382
59.78000 135.779
59.95000 124.116
60.12000 126.525
60.29000 141.789
60.46000 142.756
60.63000 138.543
60.80000 142.377
60.97000 136.766
61.14000 137.820
61.31000 138.882
61.48000 137.546
61.65000 231.534
61.82000 211.464
61.99000 142.611
62.16000 131.025
62.33000 136.997
62.50000 146.061
62.67000 145.313
62.84000 145.766
63.01000 142.873
63.18000 150.629
63.35000 143.712
63.52000 145.960
63.69000 145.364
63.86000 148.318
64.03000 162.909
64.20000 169.680
64.37000 167.570
64.54000 166.576
64.71000 166.823
64.88000 169.871
65.05000 179.165
65.22000 205.737
65.39000 245.465
65.56000 298.190
65.73000 454.286
65.90000 916.147
66.07000 370.864
66.24000 267.001
66.41000 389.452
66.58000 325.184
66.75000 291.631
66.92000 324.456
67.09000 329.420
67.26000 353.402
67.43000 397.719
67.60000 413.020
67.77000 436.980
67.94000 477.305
68.11000 530.619
68.28000 585.085
68.45000 659.840
68.62000 867.206
68.79000 1552.895
68.96000 5818.640
69.13000 48181.305
69.30000 33083.090
69.47000 10423.220
69.64000 1224.278
69.81000 817.857
69.98000 662.499
70.00000 634.756

File: BTO_Mapping_Theta2Theta_30-09-2025_001_33_-39-126_8-316.xy
20.00000 571.883
20.17000 578.292
20.34000 553.370
20.51000 555.911
20.68000 571.828
20.85000 545.000
21.02000 556.358
21.19000 555.783
21.36000 539.199
21.53000 533.724
21.70000 566.765
21.87000 582.646
22.04000 641.565
22.21000 630.695
22.38000 549.794
22.55000 538.025
22.72000 510.549
22.89000 523.043
23.06000 519.682
23.23000 516.754
23.40000 518.775
23.57000 499.743
23.74000 511.234
23.91000 523.954
24.08000 524.147
24.25000 515.249
24.42000 500.422
24.59000 499.412
24.76000 474.405
24.93000 463.680
25.10000 458.549
25.27000 480.254
25.44000 467.520
25.61000 470.360
25.78000 458.844
25.95000 465.936
26.12000 447.138
26.29000 458.855
26.46000 462.372
26.63000 459.300
26.80000 471.751
26.97000 449.380
27.14000 443.867
27.31000 449.899
27.48000 435.964
27.65000 425.032
27.82000 424.790
27.99000 412.334
28.16000 429.903
28.33000 439.701
28.50000 432.903
28.67000 413.257
28.84000 423.307
29.01000 412.127
29.18000 398.510
29.35000 397.596
29.52000 394.478
29.69000 402.844
29.86000 407.714
30.03000 435.395
30.20000 433.577
30.37000 422.860
30.54000 411.805
30.71000 419.699
30.88000 445.499
31.05000 499.214
31.22000 1025.570
31.39000 2220.960
31.56000 1543.710
31.73000 578.295
31.90000 426.047
32.07000 394.863
32.24000 400.904
32.41000 396.530
32.58000 382.537
32.75000 380.056
32.92000 378.376
33.09000 397.810
33.26000 366.834
33.43000 356.492
33.60000 344.992
33.77000 338.923
33.94000 345.066
34.11000 350.595
34.28000 355.717
34.45000 352.262
34.62000 349.903
34.79000 343.361
34.96000 332.868
35.13000 327.360
35.30000 314.217
35.47000 310.995
35.64000 315.430
35.81000 310.586
35.98000 313.517
36.15000 313.750
36.32000 305.330
36.49000 297.990
36.66000 301.382
36.83000 303.133
37.00000 299.224
37.17000 305.013
37.34000 289.385
37.51000 302.514
37.68000 279.036
37.85000 283.200
38.02000 282.072
38.19000 299.631
38.36000 322.556
38.53000 461.037
38.70000 975.856
38.87000 977.830
39.04000 436.215
39.21000 282.645
39.38000 287.757
39.55000 283.698
39.72000 272.301
39.89000 277.455
40.06000 262.113
40.23000 268.488
40.40000 236.988
40.57000 262.236
40.74000 241.725
40.91000 250.864
41.08000 244.663
41.25000 253.250
41.42000 251.448
41.59000 239.869
41.76000 250.957
41.93000 235.000
42.10000 248.611
42.27000 252.393
42.44000 240.723
42.61000 240.549
42.78000 229.682
42.95000 231.719
43.12000 228.203
43.29000 222.911
43.46000 237.900
43.63000 213.642
43.80000 228.465
43.97000 226.516
44.14000 221.884
44.31000 223.410
44.48000 223.310
44.65000 240.236
44.82000 253.388
44.99000 282.912
45.16000 314.993
45.33000 267.354
45.50000 227.197
45.67000 212.642
45.84000 214.038
46.01000 202.716
46.18000 210.751
46.35000 206.818
46.52000 204.078
46.69000 210.179
46.86000 206.493
47.03000 219.765
47.20000 194.003
47.37000 192.490
47.54000 192.085
47.71000 185.315
47.88000 172.771
48.05000 188.762
48.22000 196.404
48.39000 189.586
48.56000 176.015
48.73000 182.960
48.90000 186.317
49.07000 187.173
49.24000 170.374
49.41000 179.881
49.58000 175.422
49.75000 186.408
49.92000 163.465
50.09000 169.525
50.26000 169.290
50.43000 185.383
50.60000 220.777
50.77000 227.819
50.94000 211.939
51.11000 177.671
51.28000 166.310
51.45000 155.397
51.62000 153.352
51.79000 159.257
51.96000 160.094
52.13000 166.934
52.30000 165.529
52.47000 148.590
52.64000 165.721
52.81000 164.184
52.98000 155.733
53.15000 151.086
53.32000 162.656
53.49000 162.967
53.66000 165.235
53.83000 156.896
54.00000 152.684
54.17000 157.296
54.34000 161.933
54.51000 165.320
54.68000 143.177
54.85000 155.552
55.02000 149.952
55.19000 166.927
55.36000 171.689
55.53000 181.180
55.70000 270.739
55.87000 503.749
56.04000 594.258
56.21000 387.719
56.38000 221.220
56.55000 174.078
56.72000 162.263
56.89000 149.683
57.06000 144.162
57.23000 142.637
57.40000 143.325
57.57000 130.490
57.74000 136.825
57.91000 135.554
58.08000 139.349
58.25000 138.526
58.42000 145.005
58.59000 142.900
58.76000 133.712
58.93000 129.809
59.10000 141.893
59.27000 131.111
59.44000 132.730
59.61000 128.826
59.78000 136.134
59.95000 133.013
60.12000 134.772
60.29000 123.490
60.46000 134.958
60.63000 132.148
60.80000 131.080
60.97000 142.844
61.14000 134.550
61.31000 134.407
61.48000 142.416
61.65000 225.911
61.82000 214.402
61.99000 145.549
62.16000 137.394
62.33000 131.991
62.50000 138.126
62.67000 142.062
62.84000 154.125
63.01000 146.572
63.18000 147.857
63.35000 151.469
63.52000 142.292
63.69000 147.214
63.86000 143.067
64.03000 147.079
64.20000 161.295
64.37000 169.535
64.54000 167.825
64.71000 177.965
64.88000 173.131
65.05000 193.476
65.22000 218.512
65.39000 249.089
65.56000 321.717
65.73000 464.517
65.90000 883.449
66.07000 391.841
66.24000 283.427
66.41000 385.712
66.58000 342.881
66.75000 284.934
66.92000 295.765
67.09000 334.402
67.26000 346.338
67.43000 369.091
67.60000 396.964
67.77000 433.974
67.94000 471.507
68.11000 523.463
68.28000 565.440
68.45000 671.310
68.62000 831.234
68.79000 1550.438
68.96000 5047.355
69.13000 47256.098
69.30000 33344.551
69.47000 11116.134
69.64000 1217.655
69.81000 778.311
69.98000 661.259
70.00000 636.313

File: BTO_Mapping_Theta2Theta_30-09-2025_001_34_-9-781_-2-079.xy
20.00000 572.017
20.17000 573.777
20.34000 580.684
20.51000 563.457
20.68000 557.042
20.85000 543.834
21.02000 546.741
21.19000 574.146
21.36000 544.602
21.53000 552.688
21.70000 571.299
21.87000 646.444
22.04000 789.975
22.21000 691.160
22.38000 556.868
22.55000 537.241
22.72000 538.776
22.89000 502.819
23.06000 525.741
23.23000 508.107
23.40000 518.955
23.57000 497.227
23.74000 508.916
23.91000 520.055
24.08000 531.141
24.25000 536.761
24.42000 494.364
24.59000 489.509
24.76000 492.134
24.93000 493.315
25.10000 494.164
25.27000 483.127
25.44000 484.226
25.61000 481.684
25.78000 457.037
25.95000 469.547
26.12000 454.052
26.29000 465.501
26.46000 472.304
26.63000 474.932
26.80000 446.275
26.97000 445.419
27.14000 443.554
27.31000 459.376
27.48000 430.396
27.65000 444.734
27.82000 446.313
27.99000 437.829
28.16000 431.698
28.33000 417.053
28.50000 421.671
28.67000 426.396
28.84000 416.685
29.01000 416.146
29.18000 419.032
29.35000 419.084
29.52000 420.947
29.69000 417.477
29.86000 433.327
30.03000 451.805
30.20000 436.918
30.37000 416.302
30.54000 446.579
30.71000 437.610
30.88000 492.267
31.05000 721.772
31.22000 1930.171
31.39000 3647.614
31.56000 1708.618
31.73000 572.201
31.90000 459.412
32.07000 418.899
32.24000 400.080
32.41000 397.661
32.58000 382.121
32.75000 361.987
32.92000 412.270
33.09000 424.674
33.26000 364.328
33.43000 346.000
33.60000 356.039
33.77000 375.866
33.94000 343.188
34.11000 330.912
34.28000 336.850
34.45000 321.811
34.62000 335.502
34.79000 327.964
34.96000 320.177
35.13000 322.894
35.30000 321.800
35.47000 318.117
35.64000 314.348
35.81000 308.421
35.98000 300.973
36.15000 300.010
36.32000 296.811
36.49000 295.756
36.66000 308.233
36.83000 293.916
37.00000 301.965
37.17000 313.056
37.34000 315.141
37.51000 299.829
37.68000 297.635
37.85000 292.467
38.02000 287.135
38.19000 307.767
38.36000 334.601
38.53000 507.595
38.70000 842.003
38.87000 618.675
39.04000 337.645
39.21000 284.813
39.38000 270.836
39.55000 273.740
39.72000 270.010
39.89000 274.583
40.06000 258.593
40.23000 251.043
40.40000 241.030
40.57000 251.452
40.74000 264.195
40.91000 248.696
41.08000 244.567
41.25000 244.092
41.42000 240.536
41.59000 248.069
41.76000 233.909
41.93000 239.293
42.10000 251.868
42.27000 233.088
42.44000 225.937
42.61000 235.063
42.78000 233.874
42.95000 230.731
43.12000 235.721
43.29000 229.624
43.46000 227.031
43.63000 224.705
43.80000 231.721
43.97000 226.274
44.14000 223.687
44.31000 231.244
44.48000 241.912
44.65000 243.111
44.82000 287.649
44.99000 417.470
45.16000 433.382
45.33000 285.603
45.50000 236.611
45.67000 228.712
45.84000 216.843
46.01000 210.615
46.18000 201.370
46.35000 201.939
46.52000 196.030
46.69000 199.687
46.86000 207.346
47.03000 201.136
47.20000 188.704
47.37000 197.144
47.54000 192.718
47.71000 192.767
47.88000 196.478
48.05000 183.046
48.22000 184.936
48.39000 175.540
48.56000 180.163
48.73000 187.667
48.90000 181.147
49.07000 179.899
49.24000 183.706
49.41000 171.000
49.58000 168.418
49.75000 185.195
49.92000 161.010
50.09000 176.726
50.26000 179.801
50.43000 202.996
50.60000 257.537
50.77000 267.884
50.94000 209.624
51.11000 180.829
51.28000 165.793
51.45000 167.551
51.62000 165.748
51.79000 166.502
51.96000 165.816
52.13000 166.777
52.30000 159.393
52.47000 168.731
52.64000 162.510
52.81000 164.519
52.98000 161.943
53.15000 159.299
53.32000 171.353
53.49000 156.840
53.66000 149.776
53.83000 157.107
54.00000 154.543
54.17000 152.245
54.34000 146.199
54.51000 157.302
54.68000 154.147
54.85000 159.080
55.02000 166.673
55.19000 155.870
55.36000 174.926
55.53000 204.309
55.70000 321.317
55.87000 613.246
56.04000 561.235
56.21000 317.771
56.38000 186.810
56.55000 167.283
56.72000 157.778
56.89000 152.990
57.06000 143.776
57.23000 139.722
57.40000 140.868
57.57000 152.097
57.74000 141.513
57.91000 141.251
58.08000 133.545
58.25000 137.348
58.42000 137.843
58.59000 139.532
58.76000 140.389
58.93000 132.217
59.10000 132.050
59.27000 141.589
59.44000 130.487
59.61000 141.720
59.78000 140.190
59.95000 133.998
60.12000 139.228
60.29000 135.838
60.46000 140.198
60.63000 135.228
60.80000 130.080
60.97000 137.991
61.14000 122.619
61.31000 137.593
61.48000 139.788
61.65000 278.396
61.82000 218.208
61.99000 144.644
62.16000 140.139
62.33000 141.942
62.50000 132.782
62.67000 156.987
62.84000 137.472
63.01000 159.595
63.18000 148.733
63.35000 148.806
63.52000 152.006
63.69000 165.723
63.86000 154.770
64.03000 167.264
64.20000 164.926
64.37000 168.260
64.54000 182.572
64.71000 166.523
64.88000 192.246
65.05000 209.251
65.22000 250.828
65.39000 342.291
65.56000 450.583
65.73000 714.311
65.90000 1259.275
66.07000 395.087
66.24000 325.573
66.41000 475.313
66.58000 364.426
66.75000 322.493
66.92000 339.850
67.09000 377.855
67.26000 422.626
67.43000 437.558
67.60000 470.126
67.77000 494.507
67.94000 528.422
68.11000 581.195
68.28000 661.798
68.45000 757.170
68.62000 1097.075
68.79000 2071.363
68.96000 12028.105
69.13000 70143.141
69.30000 43417.234
69.47000 11221.548
69.64000 1433.608
69.81000 946.600
69.98000 747.873
70.00000 753.028

File: BTO_Mapping_Theta2Theta_30-09-2025_001_35_-19-563_-4-158.xy
20.00000 557.472
20.17000 586.759
20.34000 560.968
20.51000 551.220
20.68000 559.689
20.85000 553.301
21.02000 558.138
21.19000 547.451
21.36000 580.274
21.53000 536.598
21.70000 545.512
21.87000 611.054
22.04000 738.526
22.21000 667.139
22.38000 546.445
22.55000 537.365
22.72000 520.364
22.89000 515.319
23.06000 503.618
23.23000 506.001
23.40000 493.903
23.57000 501.862
23.74000 508.059
23.91000 515.204
24.08000 535.221
24.25000 501.561
24.42000 482.041
24.59000 506.860
24.76000 493.677
24.93000 493.273
25.10000 470.492
25.27000 487.160
25.44000 508.379
25.61000 478.825
25.78000 475.434
25.95000 462.693
26.12000 467.825
26.29000 478.868
26.46000 454.643
26.63000 458.314
26.80000 448.411
26.97000 445.562
27.14000 431.993
27.31000 462.888
27.48000 432.523
27.65000 433.233
27.82000 430.265
27.99000 444.863
28.16000 434.983
28.33000 431.438
28.50000 413.703
28.67000 433.483
28.84000 433.065
29.01000 418.653
29.18000 418.618
29.35000 412.363
29.52000 406.360
29.69000 406.472
29.86000 411.613
30.03000 436.723
30.20000 433.702
30.37000 440.263
30.54000 425.434
30.71000 454.600
30.88000 482.960
31.05000 625.326
31.22000 1774.642
31.39000 3738.644
31.56000 1906.713
31.73000 621.911
31.90000 450.856
32.07000 422.140
32.24000 407.876
32.41000 383.713
32.58000 403.936
32.75000 375.570
32.92000 402.371
33.09000 431.151
33.26000 359.752
33.43000 352.165
33.60000 352.397
33.77000 342.782
33.94000 335.955
34.11000 347.534
34.28000 332.399
34.45000 341.486
34.62000 331.092
34.79000 338.256
34.96000 337.785
35.13000 318.147
35.30000 314.071
35.47000 318.474
35.64000 340.928
35.81000 316.828
35.98000 310.044
36.15000 317.819
36.32000 306.028
36.49000 298.521
36.66000 302.111
36.83000 307.889
37.00000 309.180
37.17000 295.927
37.34000 291.363
37.51000 286.845
37.68000 289.344
37.85000 282.529
38.02000 299.795
38.19000 284.450
38.36000 322.739
38.53000 458.112
38.70000 850.920
38.87000 644.616
39.04000 335.417
39.21000 285.622
39.38000 270.038
39.55000 280.135
39.72000 267.205
39.89000 269.918
40.06000 268.157
40.23000 242.270
40.40000 251.834
40.57000 263.260
40.74000 257.797
40.91000 247.593
41.08000 253.717
41.25000 241.912
41.42000 241.785
41.59000 243.737
41.76000 243.935
41.93000 237.707
42.10000 241.254
42.27000 240.278
42.44000 232.158
42.61000 236.204
42.78000 238.415
42.95000 231.474
43.12000 221.485
43.29000 219.251
43.46000 224.788
43.63000 236.331
43.80000 226.243
43.97000 219.385
44.14000 227.185
44.31000 239.300
44.48000 230.097
44.65000 233.084
44.82000 257.672
44.99000 357.527
45.16000 419.515
45.33000 307.869
45.50000 257.055
45.67000 219.040
45.84000 204.528
46.01000 208.564
46.18000 208.581
46.35000 206.858
46.52000 208.252
46.69000 218.894
46.86000 193.120
47.03000 192.033
47.20000 191.578
47.37000 199.360
47.54000 194.422
47.71000 193.985
47.88000 193.568
48.05000 184.782
48.22000 194.003
48.39000 186.322
48.56000 186.164
48.73000 177.373
48.90000 184.160
49.07000 185.245
49.24000 183.133
49.41000 183.448
49.58000 178.814
49.75000 177.126
49.92000 195.890
50.09000 166.865
50.26000 188.463
50.43000 203.603
50.60000 256.735
50.77000 273.675
50.94000 219.836
51.11000 188.924
51.28000 164.950
51.45000 168.003
51.62000 161.181
51.79000 161.278
51.96000 170.133
52.13000 156.555
52.30000 158.158
52.47000 168.646
52.64000 165.118
52.81000 154.516
52.98000 151.628
53.15000 165.448
53.32000 169.253
53.49000 171.886
53.66000 163.816
53.83000 156.456
54.00000 167.533
54.17000 149.410
54.34000 153.135
54.51000 155.856
54.68000 161.452
54.85000 156.080
55.02000 157.093
55.19000 154.971
55.36000 160.455
55.53000 200.834
55.70000 299.625
55.87000 568.137
56.04000 585.908
56.21000 326.473
56.38000 196.243
56.55000 158.013
56.72000 153.119
56.89000 161.563
57.06000 142.281
57.23000 151.055
57.40000 144.909
57.57000 146.320
57.74000 140.351
57.91000 137.242
58.08000 148.514
58.25000 137.267
58.42000 144.537
58.59000 135.634
58.76000 130.473
58.93000 143.160
59.10000 139.420
59.27000 140.273
59.44000 144.622
59.61000 135.724
59.78000 135.673
59.95000 127.018
60.12000 139.099
60.29000 128.565
60.46000 131.728
60.63000 135.986
60.80000 131.237
60.97000 142.870
61.14000 144.082
61.31000 136.213
61.48000 147.138
61.65000 283.394
61.82000 228.384
61.99000 144.609
62.16000 137.484
62.33000 145.980
62.50000 153.818
62.67000 131.418
62.84000 144.668
63.01000 147.582
63.18000 145.016
63.35000 148.927
63.52000 147.732
63.69000 148.958
63.86000 154.327
64.03000 150.147
64.20000 156.045
64.37000 152.091
64.54000 166.204
64.71000 164.752
64.88000 176.999
65.05000 201.480
65.22000 233.480
65.39000 325.156
65.56000 441.737
65.73000 637.322
65.90000 1153.044
66.07000 412.403
66.24000 302.240
66.41000 463.112
66.58000 364.410
66.75000 320.813
66.92000 335.000
67.09000 358.614
67.26000 390.630
67.43000 413.744
67.60000 460.323
67.77000 510.195
67.94000 502.696
68.11000 569.985
68.28000 656.600
68.45000 741.864
68.62000 995.452
68.79000 1933.359
68.96000 9407.271
69.13000 66073.711
69.30000 42588.594
69.47000 12037.532
69.64000 1406.049
69.81000 916.452
69.98000 734.046
70.00000 721.081

File: BTO_Mapping_Theta2Theta_30-09-2025_001_36_-29-344_-6-237.xy
20.00000 580.497
20.17000 551.480
20.34000 570.523
20.51000 551.398
20.68000 552.047
20.85000 561.154
21.02000 548.837
21.19000 558.784
21.36000 545.758
21.53000 529.985
21.70000 568.842
21.87000 592.230
22.04000 698.437
22.21000 655.834
22.38000 542.897
22.55000 516.621
22.72000 510.101
22.89000 505.911
23.06000 514.335
23.23000 525.035
23.40000 524.807
23.57000 515.937
23.74000 507.030
23.91000 508.731
24.08000 523.534
24.25000 518.113
24.42000 493.567
24.59000 467.129
24.76000 497.224
24.93000 462.003
25.10000 473.352
25.27000 480.655
25.44000 463.696
25.61000 467.275
25.78000 475.662
25.95000 464.153
26.12000 466.011
26.29000 453.657
26.46000 458.297
26.63000 461.430
26.80000 446.013
26.97000 471.824
27.14000 448.270
27.31000 455.266
27.48000 442.063
27.65000 436.447
27.82000 438.476
27.99000 438.079
28.16000 436.778
28.33000 441.867
28.50000 422.688
28.67000 407.062
28.84000 441.778
29.01000 413.067
29.18000 404.016
29.35000 442.630
29.52000 421.117
29.69000 429.646
29.86000 413.961
30.03000 452.023
30.20000 452.593
30.37000 425.958
30.54000 438.094
30.71000 431.099
30.88000 472.494
31.05000 583.442
31.22000 1564.902
31.39000 3626.628
31.56000 2137.855
31.73000 646.429
31.90000 446.090
32.07000 424.602
32.24000 427.144
32.41000 386.721
32.58000 383.508
32.75000 354.603
32.92000 390.915
33.09000 432.342
33.26000 363.554
33.43000 354.513
33.60000 343.765
33.77000 343.254
33.94000 333.497
34.11000 348.079
34.28000 352.301
34.45000 343.889
34.62000 354.926
34.79000 321.847
34.96000 316.285
35.13000 330.935
35.30000 320.792
35.47000 310.845
35.64000 319.165
35.81000 311.682
35.98000 320.335
36.15000 314.179
36.32000 311.622
36.49000 290.208
36.66000 303.702
36.83000 306.051
37.00000 305.300
37.17000 304.067
37.34000 286.167
37.51000 279.699
37.68000 286.232
37.85000 285.258
38.02000 295.116
38.19000 297.251
38.36000 310.894
38.53000 435.456
38.70000 811.073
38.87000 692.715
39.04000 360.191
39.21000 277.904
39.38000 281.016
39.55000 278.259
39.72000 273.129
39.89000 247.272
40.06000 271.129
40.23000 255.429
40.40000 279.602
40.57000 257.982
40.74000 257.619
40.91000 250.533
41.08000 234.911
41.25000 231.161
41.42000 249.505
41.59000 244.931
41.76000 244.222
41.93000 233.605
42.10000 234.578
42.27000 246.491
42.44000 232.419
42.61000 241.598
42.78000 237.837
42.95000 220.420
43.12000 240.099
43.29000 224.525
43.46000 224.234
43.63000 219.550
43.80000 220.427
43.97000 224.625
44.14000 228.849
44.31000 228.513
44.48000 219.368
44.65000 247.198
44.82000 265.736
44.99000 326.566
45.16000 374.480
45.33000 290.990
45.50000 249.153
45.67000 216.250
45.84000 214.776
46.01000 220.528
46.18000 205.601
46.35000 212.274
46.52000 214.175
46.69000 189.194
46.86000 202.525
47.03000 198.452
47.20000 195.983
47.37000 194.895
47.54000 191.875
47.71000 192.339
47.88000 188.269
48.05000 190.783
48.22000 192.829
48.39000 186.147
48.56000 181.631
48.73000 186.575
48.90000 179.366
49.07000 170.179
49.24000 177.549
49.41000 177.460
49.58000 172.315
49.75000 172.279
49.92000 192.169
50.09000 171.763
50.26000 196.285
50.43000 186.690
50.60000 242.642
50.77000 261.001
50.94000 226.359
51.11000 187.426
51.28000 165.844
51.45000 174.484
51.62000 171.225
51.79000 165.563
51.96000 159.904
52.13000 155.296
52.30000 169.998
52.47000 165.273
52.64000 165.300
52.81000 163.050
52.98000 161.303
53.15000 159.056
53.32000 160.793
53.49000 167.503
53.66000 170.475
53.83000 158.630
54.00000 159.893
54.17000 152.049
54.34000 149.367
54.51000 153.266
54.68000 145.187
54.85000 162.416
55.02000 159.872
55.19000 162.612
55.36000 168.092
55.53000 191.531
55.70000 274.400
55.87000 537.826
56.04000 616.233
56.21000 349.043
56.38000 199.236
56.55000 162.489
56.72000 156.912
56.89000 149.913
57.06000 154.790
57.23000 152.321
57.40000 140.381
57.57000 151.641
57.74000 143.997
57.91000 147.035
58.08000 144.644
58.25000 145.551
58.42000 143.099
58.59000 131.717
58.76000 137.950
58.93000 141.695
59.10000 138.832
59.27000 126.157
59.44000 140.241
59.61000 129.131
59.78000 139.685
59.95000 135.340
60.12000 125.961
60.29000 135.030
60.46000 132.947
60.63000 133.861
60.80000 141.732
60.97000 128.817
61.14000 141.644
61.31000 138.071
61.48000 144.067
61.65000 260.144
61.82000 216.903
61.99000 140.396
62.16000 142.162
62.33000 154.530
62.50000 139.585
62.67000 145.410
62.84000 139.902
63.01000 152.688
63.18000 148.221
63.35000 139.739
63.52000 138.479
63.69000 149.510
63.86000 148.269
64.03000 159.412
64.20000 159.952
64.37000 158.088
64.54000 161.816
64.71000 161.732
64.88000 181.341
65.05000 195.475
65.22000 232.948
65.39000 309.020
65.56000 444.490
65.73000 605.830
65.90000 1120.757
66.07000 421.934
66.24000 292.414
66.41000 423.924
66.58000 370.171
66.75000 310.974
66.92000 316.302
67.09000 352.824
67.26000 388.245
67.43000 384.130
67.60000 422.411
67.77000 444.628
67.94000 500.461
68.11000 570.659
68.28000 625.487
68.45000 695.984
68.62000 970.276
68.79000 1747.132
68.96000 7002.346
69.13000 58873.742
69.30000 39931.777
69.47000 12384.113
69.64000 1338.738
69.81000 863.087
69.98000 712.842
70.00000 723.326