Folder: Master-Thesis/XRD/18-11-2025 GIXRD STO on Si Sputtering/XY Data

File: STO_GIXRD_23-09-2025_001_01_0-000_0-000.xy
20.00000 22.241
20.19000 27.500
20.38000 21.518
20.57000 32.745
20.76000 22.308
20.95000 17.245
21.14000 25.453
21.33000 14.320
21.52000 28.506
21.71000 25.526
21.90000 17.240
22.09000 33.620
22.28000 29.488
22.47000 32.590
22.66000 29.514
22.85000 26.457
23.04000 19.430
23.23000 22.476
23.42000 17.339
23.61000 20.610
23.80000 21.411
23.99000 18.457
24.18000 23.626
24.37000 34.862
24.56000 18.313
24.75000 22.239
24.94000 19.529
25.13000 24.482
25.32000 15.453
25.51000 21.322
25.70000 24.569
25.89000 18.282
26.08000 18.230
26.27000 18.453
26.46000 18.393
26.65000 19.493
26.84000 13.308
27.03000 18.603
27.22000 20.278
27.41000 17.251
27.60000 19.490
27.79000 21.459
27.98000 18.403
28.17000 16.320
28.36000 21.593
28.55000 24.555
28.74000 23.388
28.93000 30.491
29.12000 28.648
29.31000 12.265
29.50000 24.413
29.69000 23.540
29.88000 29.491
30.07000 19.478
30.26000 16.293
30.45000 17.289
30.64000 18.506
30.83000 15.292
31.02000 20.412
31.21000 14.360
31.40000 17.174
31.59000 17.337
31.78000 23.617
31.97000 18.428
32.16000 16.249
32.35000 14.255
32.54000 22.316
32.73000 13.292
32.92000 12.407
33.11000 10.198
33.30000 14.318
33.49000 9.214
33.68000 9.243
33.87000 21.442
34.06000 13.232
34.25000 8.341
34.44000 15.214
34.63000 9.073
34.82000 11.103
35.01000 9.233
35.20000 17.243
35.39000 11.244
35.58000 9.283
35.77000 6.112
35.96000 11.144
36.15000 6.055
36.34000 12.155
36.53000 13.298
36.72000 14.377
36.91000 7.131
37.10000 10.075
37.29000 6.169
37.48000 6.068
37.67000 7.175
37.86000 12.252
38.05000 6.061
38.24000 9.166
38.43000 8.126
38.62000 10.266
38.81000 16.295
39.00000 8.203
39.19000 7.197
39.38000 10.113
39.57000 14.355
39.76000 9.263
39.95000 10.122
40.14000 7.285
40.33000 9.187
40.52000 11.184
40.71000 8.299
40.90000 7.234
41.09000 9.387
41.28000 15.279
41.47000 9.164
41.66000 9.232
41.85000 8.197
42.04000 9.258
42.23000 6.060
42.42000 5.088
42.61000 7.183
42.80000 6.068
42.99000 6.155
43.18000 10.261
43.37000 7.188
43.56000 3.084
43.75000 8.138
43.94000 1.997
44.13000 11.338
44.32000 11.353
44.51000 8.235
44.70000 5.105
44.89000 7.252
45.08000 9.228
45.27000 8.152
45.46000 9.102
45.65000 5.055
45.84000 12.354
46.03000 3.087
46.22000 6.007
46.41000 12.210
46.60000 12.142
46.79000 5.085
46.98000 12.197
47.17000 9.361
47.36000 6.180
47.55000 12.288
47.74000 7.249
47.93000 7.106
48.12000 6.171
48.31000 6.083
48.50000 11.346
48.69000 9.179
48.88000 10.106
49.07000 8.142
49.26000 8.292
49.45000 5.032
49.64000 8.159
49.83000 6.167
50.02000 16.361
50.21000 10.122
50.40000 6.116
50.59000 9.211
50.78000 10.190
50.97000 7.124
51.16000 6.258
51.35000 8.123
51.54000 9.386
51.73000 4.166
51.92000 9.164
52.11000 10.041
52.30000 13.268
52.49000 9.133
52.68000 11.288
52.87000 10.303
53.06000 9.188
53.25000 10.246
53.44000 7.069
53.63000 11.243
53.82000 9.173
54.01000 6.126
54.20000 8.133
54.39000 12.256
54.58000 11.247
54.77000 11.182
54.96000 11.214
55.15000 11.191
55.34000 5.172
55.53000 16.301
55.72000 11.164
55.91000 7.100
56.10000 3.078
56.29000 5.143
56.48000 5.173
56.67000 4.046
56.86000 6.259
57.05000 9.129
57.24000 8.146
57.43000 3.191
57.62000 7.113
57.81000 2.030
58.00000 6.059
58.19000 2.015
58.38000 8.191
58.57000 8.183
58.76000 4.135
58.95000 9.240
59.14000 5.151
59.33000 8.326
59.52000 5.033
59.71000 10.176
59.90000 2.058
60.09000 2.995
60.28000 1.004
60.47000 3.085
60.66000 7.138
60.85000 5.142
61.04000 8.095
61.23000 6.119
61.42000 2.018
61.61000 4.081
61.80000 3.053
61.99000 3.033
62.18000 4.054
62.37000 4.160
62.56000 5.138
62.75000 4.043
62.94000 3.049
63.13000 4.044
63.32000 5.177
63.51000 5.158
63.70000 8.217
63.89000 5.023
64.08000 2.998
64.27000 4.101
64.46000 6.114
64.65000 4.142
64.84000 7.106
65.03000 4.084
65.22000 1.031
65.41000 3.123
65.60000 7.146
65.79000 1.008
65.98000 3.053
66.17000 5.085
66.36000 3.185
66.55000 6.052
66.74000 2.067
66.93000 0.000
67.12000 8.198
67.31000 10.269
67.50000 3.106
67.69000 10.377
67.88000 4.089
68.07000 6.105
68.26000 3.077
68.45000 4.114
68.64000 5.126
68.83000 3.033
69.02000 2.088
69.21000 3.146
69.40000 8.128
69.59000 5.181
69.78000 5.067
69.97000 5.169
70.16000 2.027
70.35000 7.007
70.54000 5.084
70.73000 4.161
70.92000 3.088
71.11000 2.112
71.30000 4.114
71.49000 4.088
71.68000 5.097
71.87000 4.249
72.06000 4.164
72.25000 2.024
72.44000 5.162
72.63000 3.012
72.82000 2.027
73.01000 5.081
73.20000 2.011
73.39000 3.008
73.58000 9.328
73.77000 2.011
73.96000 5.065
74.15000 5.080
74.34000 2.027
74.53000 0.983
74.72000 5.126
74.91000 4.179
75.00000 3.043