Folder: Master-Thesis/XRD/XRD/17-09-2025/XY Data (part 4)

File: BTO_Mapping_Theta2Theta_09-17-2025_001_32_0-000_30-000.xy
20.00000 552.904
20.17000 563.415
20.34000 538.953
20.51000 544.442
20.68000 555.226
20.85000 541.653
21.02000 565.694
21.19000 543.437
21.36000 547.416
21.53000 543.446
21.70000 562.013
21.87000 611.130
22.04000 682.451
22.21000 654.045
22.38000 559.973
22.55000 541.756
22.72000 522.217
22.89000 512.214
23.06000 514.071
23.23000 493.858
23.40000 495.397
23.57000 487.114
23.74000 501.995
23.91000 488.636
24.08000 481.297
24.25000 465.191
24.42000 479.734
24.59000 485.275
24.76000 467.108
24.93000 445.155
25.10000 467.363
25.27000 476.952
25.44000 473.245
25.61000 460.961
25.78000 472.499
25.95000 455.422
26.12000 472.289
26.29000 447.185
26.46000 430.710
26.63000 446.562
26.80000 447.421
26.97000 454.113
27.14000 422.343
27.31000 424.747
27.48000 411.046
27.65000 438.282
27.82000 427.548
27.99000 429.658
28.16000 415.476
28.33000 425.346
28.50000 442.266
28.67000 403.815
28.84000 416.111
29.01000 407.924
29.18000 400.361
29.35000 419.890
29.52000 395.529
29.69000 399.739
29.86000 434.573
30.03000 473.205
30.20000 427.180
30.37000 424.892
30.54000 431.829
30.71000 424.272
30.88000 463.527
31.05000 633.176
31.22000 1684.323
31.39000 3680.928
31.56000 2098.145
31.73000 633.001
31.90000 447.518
32.07000 421.882
32.24000 402.000
32.41000 398.699
32.58000 383.128
32.75000 342.400
32.92000 354.166
33.09000 342.397
33.26000 321.697
33.43000 331.113
33.60000 324.256
33.77000 335.996
33.94000 349.370
34.11000 328.527
34.28000 350.925
34.45000 316.707
34.62000 326.283
34.79000 348.816
34.96000 306.662
35.13000 313.402
35.30000 317.711
35.47000 312.852
35.64000 301.765
35.81000 307.228
35.98000 290.440
36.15000 305.911
36.32000 301.362
36.49000 278.627
36.66000 281.326
36.83000 300.217
37.00000 305.745
37.17000 296.192
37.34000 273.223
37.51000 298.283
37.68000 288.745
37.85000 286.893
38.02000 293.896
38.19000 291.717
38.36000 327.820
38.53000 451.040
38.70000 815.768
38.87000 680.027
39.04000 336.745
39.21000 277.522
39.38000 266.002
39.55000 251.406
39.72000 253.895
39.89000 262.182
40.06000 265.386
40.23000 249.499
40.40000 264.036
40.57000 259.333
40.74000 250.556
40.91000 231.848
41.08000 245.804
41.25000 236.592
41.42000 233.220
41.59000 236.018
41.76000 234.045
41.93000 219.442
42.10000 234.252
42.27000 230.705
42.44000 241.754
42.61000 235.921
42.78000 225.184
42.95000 222.372
43.12000 220.778
43.29000 233.170
43.46000 216.661
43.63000 223.130
43.80000 220.426
43.97000 219.643
44.14000 216.828
44.31000 235.090
44.48000 212.274
44.65000 233.477
44.82000 236.958
44.99000 299.404
45.16000 362.419
45.33000 301.833
45.50000 252.582
45.67000 198.241
45.84000 204.064
46.01000 201.389
46.18000 203.359
46.35000 207.034
46.52000 213.641
46.69000 206.912
46.86000 188.692
47.03000 186.987
47.20000 187.790
47.37000 196.533
47.54000 176.284
47.71000 174.448
47.88000 183.548
48.05000 186.626
48.22000 187.439
48.39000 184.147
48.56000 171.821
48.73000 184.831
48.90000 182.916
49.07000 174.620
49.24000 169.942
49.41000 168.405
49.58000 170.228
49.75000 186.406
49.92000 172.017
50.09000 170.486
50.26000 175.175
50.43000 191.232
50.60000 226.795
50.77000 284.240
50.94000 226.668
51.11000 181.459
51.28000 167.490
51.45000 175.809
51.62000 174.088
51.79000 169.314
51.96000 164.313
52.13000 169.888
52.30000 159.385
52.47000 169.388
52.64000 160.053
52.81000 153.266
52.98000 155.490
53.15000 163.498
53.32000 171.254
53.49000 162.321
53.66000 158.410
53.83000 149.679
54.00000 158.982
54.17000 151.603
54.34000 153.696
54.51000 158.361
54.68000 149.148
54.85000 161.318
55.02000 152.222
55.19000 153.327
55.36000 175.561
55.53000 181.680
55.70000 268.280
55.87000 544.961
56.04000 615.075
56.21000 365.150
56.38000 206.299
56.55000 162.000
56.72000 166.884
56.89000 145.167
57.06000 138.058
57.23000 148.949
57.40000 143.563
57.57000 140.669
57.74000 143.968
57.91000 148.545
58.08000 135.959
58.25000 137.436
58.42000 144.225
58.59000 131.363
58.76000 130.841
58.93000 129.944
59.10000 143.201
59.27000 133.685
59.44000 135.858
59.61000 135.241
59.78000 136.981
59.95000 128.655
60.12000 138.038
60.29000 135.414
60.46000 129.887
60.63000 127.760
60.80000 132.513
60.97000 129.056
61.14000 135.897
61.31000 130.780
61.48000 142.421
61.65000 267.312
61.82000 204.196
61.99000 137.807
62.16000 129.417
62.33000 144.654
62.50000 135.846
62.67000 132.767
62.84000 146.674
63.01000 144.327
63.18000 153.920
63.35000 151.156
63.52000 140.032
63.69000 157.777
63.86000 153.179
64.03000 153.057
64.20000 153.749
64.37000 156.077
64.54000 176.034
64.71000 174.336
64.88000 169.670
65.05000 207.025
65.22000 208.610
65.39000 302.747
65.56000 432.999
65.73000 696.805
65.90000 1076.733
66.07000 370.533
66.24000 306.826
66.41000 432.344
66.58000 344.250
66.75000 296.067
66.92000 320.403
67.09000 361.317
67.26000 375.069
67.43000 406.996
67.60000 427.977
67.77000 469.264
67.94000 502.201
68.11000 559.631
68.28000 617.824
68.45000 715.775
68.62000 1059.016
68.79000 1937.125
68.96000 13195.100
69.13000 61922.355
69.30000 36842.523
69.47000 8583.446
69.64000 1291.243
69.81000 862.190
69.98000 718.973
70.00000 676.296

File: BTO_Mapping_Theta2Theta_09-17-2025_001_33_15-000_30-000.xy
20.00000 558.954
20.17000 538.361
20.34000 553.672
20.51000 562.301
20.68000 557.776
20.85000 536.025
21.02000 544.256
21.19000 562.796
21.36000 550.478
21.53000 529.134
21.70000 530.529
21.87000 564.274
22.04000 629.190
22.21000 610.061
22.38000 555.963
22.55000 519.080
22.72000 512.870
22.89000 506.022
23.06000 507.567
23.23000 516.226
23.40000 492.166
23.57000 498.970
23.74000 491.867
23.91000 503.182
24.08000 497.032
24.25000 495.797
24.42000 493.670
24.59000 498.685
24.76000 483.627
24.93000 484.895
25.10000 480.670
25.27000 478.565
25.44000 461.351
25.61000 449.190
25.78000 455.596
25.95000 438.027
26.12000 454.543
26.29000 449.506
26.46000 443.728
26.63000 454.112
26.80000 444.478
26.97000 445.610
27.14000 423.612
27.31000 422.046
27.48000 452.796
27.65000 435.532
27.82000 424.931
27.99000 437.579
28.16000 417.795
28.33000 437.303
28.50000 408.265
28.67000 422.558
28.84000 413.169
29.01000 390.126
29.18000 411.734
29.35000 406.348
29.52000 392.402
29.69000 385.434
29.86000 409.937
30.03000 416.982
30.20000 433.421
30.37000 423.280
30.54000 415.828
30.71000 436.427
30.88000 457.207
31.05000 561.281
31.22000 1287.518
31.39000 2653.878
31.56000 1594.312
31.73000 551.189
31.90000 425.197
32.07000 402.288
32.24000 385.621
32.41000 390.077
32.58000 362.015
32.75000 363.187
32.92000 360.828
33.09000 329.519
33.26000 341.701
33.43000 330.383
33.60000 336.276
33.77000 331.093
33.94000 334.459
34.11000 341.252
34.28000 340.120
34.45000 349.364
34.62000 328.433
34.79000 328.702
34.96000 313.949
35.13000 327.006
35.30000 301.591
35.47000 311.479
35.64000 308.210
35.81000 293.392
35.98000 287.497
36.15000 303.389
36.32000 281.748
36.49000 285.702
36.66000 292.232
36.83000 298.643
37.00000 310.079
37.17000 298.442
37.34000 286.968
37.51000 283.363
37.68000 285.720
37.85000 292.492
38.02000 290.449
38.19000 297.993
38.36000 321.557
38.53000 498.380
38.70000 1044.845
38.87000 884.451
39.04000 380.928
39.21000 295.027
39.38000 272.952
39.55000 273.247
39.72000 271.079
39.89000 267.685
40.06000 254.918
40.23000 257.140
40.40000 255.529
40.57000 241.420
40.74000 252.909
40.91000 244.921
41.08000 236.797
41.25000 242.759
41.42000 237.600
41.59000 235.720
41.76000 236.826
41.93000 241.691
42.10000 224.455
42.27000 239.248
42.44000 233.564
42.61000 223.563
42.78000 225.937
42.95000 222.283
43.12000 218.510
43.29000 231.225
43.46000 226.024
43.63000 231.765
43.80000 216.347
43.97000 208.034
44.14000 217.431
44.31000 216.791
44.48000 213.136
44.65000 237.439
44.82000 232.771
44.99000 275.929
45.16000 282.944
45.33000 252.005
45.50000 238.128
45.67000 238.818
45.84000 205.710
46.01000 210.595
46.18000 203.301
46.35000 206.365
46.52000 203.746
46.69000 202.491
46.86000 198.343
47.03000 188.960
47.20000 184.154
47.37000 192.070
47.54000 185.989
47.71000 183.394
47.88000 185.767
48.05000 176.803
48.22000 175.810
48.39000 180.711
48.56000 177.557
48.73000 180.930
48.90000 183.001
49.07000 187.011
49.24000 165.879
49.41000 180.742
49.58000 172.381
49.75000 173.055
49.92000 170.920
50.09000 188.744
50.26000 185.662
50.43000 192.591
50.60000 215.491
50.77000 221.121
50.94000 191.346
51.11000 179.769
51.28000 172.716
51.45000 163.788
51.62000 151.727
51.79000 158.630
51.96000 160.759
52.13000 156.713
52.30000 159.863
52.47000 153.813
52.64000 158.681
52.81000 151.296
52.98000 150.731
53.15000 152.936
53.32000 161.589
53.49000 153.498
53.66000 166.764
53.83000 156.578
54.00000 157.173
54.17000 152.555
54.34000 152.129
54.51000 153.641
54.68000 160.966
54.85000 162.607
55.02000 160.384
55.19000 164.449
55.36000 150.107
55.53000 188.077
55.70000 286.502
55.87000 524.955
56.04000 611.886
56.21000 366.008
56.38000 214.710
56.55000 164.905
56.72000 153.889
56.89000 144.620
57.06000 138.774
57.23000 144.374
57.40000 149.365
57.57000 143.150
57.74000 137.704
57.91000 141.328
58.08000 132.006
58.25000 135.927
58.42000 135.561
58.59000 145.655
58.76000 129.491
58.93000 123.935
59.10000 136.722
59.27000 134.875
59.44000 132.690
59.61000 129.176
59.78000 130.114
59.95000 133.091
60.12000 132.755
60.29000 132.700
60.46000 139.245
60.63000 127.557
60.80000 135.539
60.97000 140.712
61.14000 127.413
61.31000 145.797
61.48000 134.501
61.65000 237.010
61.82000 186.970
61.99000 133.238
62.16000 138.012
62.33000 134.592
62.50000 138.701
62.67000 148.416
62.84000 140.461
63.01000 146.613
63.18000 151.811
63.35000 143.330
63.52000 150.401
63.69000 144.170
63.86000 152.519
64.03000 142.655
64.20000 143.196
64.37000 158.776
64.54000 159.717
64.71000 163.202
64.88000 173.297
65.05000 188.852
65.22000 220.576
65.39000 278.370
65.56000 345.948
65.73000 553.294
65.90000 878.395
66.07000 344.592
66.24000 289.609
66.41000 384.547
66.58000 318.571
66.75000 280.423
66.92000 317.340
67.09000 331.529
67.26000 337.423
67.43000 378.600
67.60000 403.418
67.77000 428.434
67.94000 458.697
68.11000 516.623
68.28000 574.740
68.45000 661.547
68.62000 907.167
68.79000 1607.934
68.96000 9162.237
69.13000 47933.680
69.30000 29161.502
69.47000 7203.940
69.64000 1132.630
69.81000 745.266
69.98000 652.452
70.00000 653.744

File: BTO_Mapping_Theta2Theta_09-17-2025_001_35_-15-000_45-000.xy
20.00000 528.935
20.17000 544.430
20.34000 556.645
20.51000 551.314
20.68000 536.926
20.85000 551.207
21.02000 534.529
21.19000 536.001
21.36000 520.076
21.53000 510.188
21.70000 527.552
21.87000 527.503
22.04000 518.001
22.21000 507.169
22.38000 508.011
22.55000 514.153
22.72000 497.023
22.89000 489.019
23.06000 495.004
23.23000 490.304
23.40000 511.199
23.57000 494.996
23.74000 488.606
23.91000 479.169
24.08000 484.295
24.25000 476.657
24.42000 465.606
24.59000 473.542
24.76000 471.719
24.93000 479.048
25.10000 460.387
25.27000 469.687
25.44000 464.747
25.61000 449.292
25.78000 460.897
25.95000 439.498
26.12000 433.031
26.29000 455.776
26.46000 439.666
26.63000 435.714
26.80000 424.407
26.97000 430.738
27.14000 417.814
27.31000 412.458
27.48000 406.256
27.65000 417.821
27.82000 402.015
27.99000 400.279
28.16000 413.075
28.33000 428.252
28.50000 397.558
28.67000 403.257
28.84000 415.514
29.01000 396.837
29.18000 378.510
29.35000 392.399
29.52000 378.473
29.69000 375.071
29.86000 391.950
30.03000 392.544
30.20000 379.276
30.37000 373.579
30.54000 374.693
30.71000 360.641
30.88000 360.866
31.05000 369.867
31.22000 370.189
31.39000 360.130
31.56000 345.632
31.73000 360.122
31.90000 365.229
32.07000 346.622
32.24000 343.004
32.41000 337.940
32.58000 346.559
32.75000 361.480
32.92000 340.674
33.09000 333.199
33.26000 332.309
33.43000 345.231
33.60000 314.592
33.77000 327.487
33.94000 324.198
34.11000 315.202
34.28000 324.273
34.45000 313.386
34.62000 318.427
34.79000 301.985
34.96000 311.225
35.13000 307.039
35.30000 313.064
35.47000 297.818
35.64000 289.968
35.81000 302.459
35.98000 288.426
36.15000 311.169
36.32000 286.225
36.49000 290.776
36.66000 277.827
36.83000 287.712
37.00000 277.549
37.17000 275.095
37.34000 288.026
37.51000 272.346
37.68000 280.549
37.85000 266.502
38.02000 269.103
38.19000 266.981
38.36000 273.767
38.53000 258.886
38.70000 252.548
38.87000 251.695
39.04000 252.759
39.21000 244.850
39.38000 246.140
39.55000 252.536
39.72000 250.245
39.89000 247.945
40.06000 238.072
40.23000 246.178
40.40000 249.796
40.57000 241.129
40.74000 240.097
40.91000 227.106
41.08000 235.955
41.25000 252.822
41.42000 225.235
41.59000 234.523
41.76000 229.946
41.93000 236.838
42.10000 233.452
42.27000 228.886
42.44000 227.922
42.61000 211.850
42.78000 226.668
42.95000 218.881
43.12000 218.731
43.29000 220.767
43.46000 214.935
43.63000 208.610
43.80000 211.149
43.97000 203.415
44.14000 210.756
44.31000 212.851
44.48000 204.043
44.65000 201.244
44.82000 207.658
44.99000 207.948
45.16000 202.075
45.33000 200.455
45.50000 199.839
45.67000 205.564
45.84000 201.353
46.01000 209.153
46.18000 196.905
46.35000 202.360
46.52000 186.229
46.69000 193.400
46.86000 174.400
47.03000 181.985
47.20000 174.429
47.37000 187.720
47.54000 181.981
47.71000 183.880
47.88000 182.672
48.05000 188.940
48.22000 168.949
48.39000 175.673
48.56000 185.488
48.73000 179.866
48.90000 181.507
49.07000 177.160
49.24000 171.346
49.41000 173.445
49.58000 175.089
49.75000 172.272
49.92000 181.234
50.09000 182.274
50.26000 174.101
50.43000 170.404
50.60000 169.169
50.77000 152.542
50.94000 164.629
51.11000 167.957
51.28000 160.356
51.45000 164.131
51.62000 159.435
51.79000 160.828
51.96000 161.868
52.13000 150.611
52.30000 167.228
52.47000 154.149
52.64000 151.207
52.81000 143.387
52.98000 148.585
53.15000 165.053
53.32000 153.192
53.49000 155.748
53.66000 145.445
53.83000 143.746
54.00000 152.403
54.17000 146.784
54.34000 144.789
54.51000 137.251
54.68000 145.260
54.85000 153.410
55.02000 146.937
55.19000 150.281
55.36000 145.957
55.53000 143.185
55.70000 152.007
55.87000 138.418
56.04000 154.793
56.21000 138.776
56.38000 146.678
56.55000 138.891
56.72000 131.251
56.89000 132.187
57.06000 140.625
57.23000 135.252
57.40000 138.877
57.57000 129.017
57.74000 135.875
57.91000 134.710
58.08000 130.837
58.25000 132.368
58.42000 142.623
58.59000 148.804
58.76000 135.711
58.93000 134.991
59.10000 135.131
59.27000 131.715
59.44000 126.414
59.61000 136.743
59.78000 134.781
59.95000 124.318
60.12000 128.422
60.29000 131.907
60.46000 131.239
60.63000 128.036
60.80000 127.233
60.97000 135.420
61.14000 132.111
61.31000 139.912
61.48000 139.625
61.65000 239.454
61.82000 199.412
61.99000 141.034
62.16000 146.900
62.33000 141.261
62.50000 140.412
62.67000 137.423
62.84000 149.962
63.01000 130.210
63.18000 142.417
63.35000 154.004
63.52000 142.264
63.69000 149.430
63.86000 159.511
64.03000 153.095
64.20000 165.711
64.37000 165.803
64.54000 168.039
64.71000 168.017
64.88000 176.203
65.05000 182.781
65.22000 191.873
65.39000 198.893
65.56000 232.395
65.73000 478.574
65.90000 907.751
66.07000 333.635
66.24000 302.418
66.41000 426.017
66.58000 321.674
66.75000 320.774
66.92000 347.760
67.09000 360.817
67.26000 384.119
67.43000 427.504
67.60000 461.586
67.77000 496.146
67.94000 544.643
68.11000 590.730
68.28000 661.138
68.45000 759.988
68.62000 1047.671
68.79000 1926.605
68.96000 12004.192
69.13000 56251.180
69.30000 33527.090
69.47000 8088.084
69.64000 1267.880
69.81000 890.299
69.98000 713.178
70.00000 700.141