Folder: Master-Thesis/XRD/XRD/17-09-2025/XY Data (part 2)

File: BTO_Mapping_Theta2Theta_09-17-2025_001_10_-30-000_-15-000.xy
20.00000 573.569
20.17000 572.671
20.34000 538.417
20.51000 560.508
20.68000 568.752
20.85000 541.249
21.02000 555.993
21.19000 561.801
21.36000 571.551
21.53000 573.057
21.70000 676.303
21.87000 950.335
22.04000 1005.400
22.21000 678.511
22.38000 570.678
22.55000 539.451
22.72000 524.649
22.89000 533.810
23.06000 522.757
23.23000 485.827
23.40000 513.081
23.57000 524.256
23.74000 507.358
23.91000 497.867
24.08000 494.549
24.25000 507.559
24.42000 503.655
24.59000 506.067
24.76000 477.230
24.93000 485.003
25.10000 468.832
25.27000 484.334
25.44000 481.159
25.61000 481.118
25.78000 478.092
25.95000 482.155
26.12000 467.736
26.29000 454.626
26.46000 448.062
26.63000 461.978
26.80000 451.944
26.97000 449.636
27.14000 464.516
27.31000 455.496
27.48000 450.444
27.65000 446.799
27.82000 437.232
27.99000 461.849
28.16000 454.703
28.33000 444.710
28.50000 417.796
28.67000 437.479
28.84000 441.904
29.01000 442.538
29.18000 426.967
29.35000 433.578
29.52000 435.418
29.69000 442.368
29.86000 457.880
30.03000 481.983
30.20000 445.327
30.37000 452.290
30.54000 463.482
30.71000 486.482
30.88000 576.788
31.05000 1320.442
31.22000 3568.682
31.39000 2688.675
31.56000 883.862
31.73000 519.623
31.90000 458.826
32.07000 427.739
32.24000 411.309
32.41000 397.903
32.58000 396.728
32.75000 371.059
32.92000 383.083
33.09000 369.831
33.26000 361.580
33.43000 356.861
33.60000 363.070
33.77000 343.648
33.94000 352.915
34.11000 332.669
34.28000 334.340
34.45000 345.463
34.62000 308.603
34.79000 311.797
34.96000 327.086
35.13000 316.257
35.30000 312.541
35.47000 308.812
35.64000 318.424
35.81000 302.361
35.98000 294.227
36.15000 329.655
36.32000 308.601
36.49000 309.716
36.66000 289.317
36.83000 310.634
37.00000 299.404
37.17000 310.003
37.34000 292.087
37.51000 314.361
37.68000 286.809
37.85000 290.807
38.02000 306.616
38.19000 333.808
38.36000 377.737
38.53000 481.873
38.70000 428.792
38.87000 333.441
39.04000 303.678
39.21000 290.967
39.38000 271.117
39.55000 256.359
39.72000 264.674
39.89000 260.579
40.06000 265.300
40.23000 257.217
40.40000 259.521
40.57000 254.420
40.74000 266.588
40.91000 254.517
41.08000 241.155
41.25000 254.709
41.42000 246.956
41.59000 250.580
41.76000 249.726
41.93000 250.279
42.10000 232.595
42.27000 254.652
42.44000 250.280
42.61000 253.420
42.78000 244.978
42.95000 244.494
43.12000 230.438
43.29000 236.691
43.46000 240.311
43.63000 221.906
43.80000 232.399
43.97000 236.407
44.14000 231.729
44.31000 250.810
44.48000 308.920
44.65000 449.501
44.82000 657.940
44.99000 651.716
45.16000 427.328
45.33000 312.011
45.50000 243.725
45.67000 231.432
45.84000 223.721
46.01000 206.838
46.18000 220.138
46.35000 213.025
46.52000 214.831
46.69000 205.252
46.86000 202.906
47.03000 212.469
47.20000 210.823
47.37000 186.641
47.54000 191.901
47.71000 188.643
47.88000 185.838
48.05000 191.581
48.22000 196.827
48.39000 198.189
48.56000 181.360
48.73000 177.595
48.90000 192.476
49.07000 179.878
49.24000 189.970
49.41000 172.283
49.58000 184.042
49.75000 185.199
49.92000 180.273
50.09000 171.790
50.26000 224.033
50.43000 297.574
50.60000 288.552
50.77000 249.508
50.94000 190.240
51.11000 191.643
51.28000 176.825
51.45000 178.947
51.62000 165.068
51.79000 159.269
51.96000 165.275
52.13000 177.743
52.30000 174.400
52.47000 172.009
52.64000 158.577
52.81000 168.616
52.98000 154.378
53.15000 166.032
53.32000 169.333
53.49000 161.930
53.66000 163.373
53.83000 170.696
54.00000 155.571
54.17000 156.344
54.34000 158.039
54.51000 164.584
54.68000 160.709
54.85000 162.736
55.02000 163.387
55.19000 193.781
55.36000 227.414
55.53000 376.803
55.70000 522.630
55.87000 455.302
56.04000 287.909
56.21000 212.433
56.38000 163.607
56.55000 156.202
56.72000 152.202
56.89000 146.232
57.06000 143.874
57.23000 152.007
57.40000 139.208
57.57000 147.119
57.74000 145.069
57.91000 142.407
58.08000 144.999
58.25000 138.662
58.42000 141.841
58.59000 148.123
58.76000 133.879
58.93000 140.521
59.10000 145.754
59.27000 136.324
59.44000 135.089
59.61000 133.130
59.78000 132.268
59.95000 133.100
60.12000 136.293
60.29000 133.567
60.46000 140.521
60.63000 133.358
60.80000 138.590
60.97000 131.856
61.14000 141.859
61.31000 140.777
61.48000 157.187
61.65000 357.768
61.82000 223.093
61.99000 147.260
62.16000 144.122
62.33000 139.262
62.50000 143.751
62.67000 139.221
62.84000 144.764
63.01000 161.488
63.18000 160.657
63.35000 154.777
63.52000 148.927
63.69000 158.999
63.86000 151.383
64.03000 155.300
64.20000 162.276
64.37000 174.300
64.54000 167.422
64.71000 194.165
64.88000 224.140
65.05000 294.335
65.22000 404.216
65.39000 395.468
65.56000 375.171
65.73000 819.428
65.90000 1419.129
66.07000 417.534
66.24000 350.434
66.41000 529.129
66.58000 388.144
66.75000 345.896
66.92000 362.499
67.09000 379.042
67.26000 429.922
67.43000 450.042
67.60000 486.100
67.77000 541.289
67.94000 594.578
68.11000 661.281
68.28000 735.218
68.45000 893.098
68.62000 1362.836
68.79000 2674.408
68.96000 24735.900
69.13000 92343.016
69.30000 54290.332
69.47000 12458.469
69.64000 1686.300
69.81000 1044.225
69.98000 819.429
70.00000 803.770

File: BTO_Mapping_Theta2Theta_09-17-2025_001_12_0-000_-15-000.xy
20.00000 558.134
20.17000 536.528
20.34000 546.406
20.51000 551.016
20.68000 550.528
20.85000 538.770
21.02000 550.503
21.19000 549.946
21.36000 558.082
21.53000 530.034
21.70000 562.465
21.87000 643.083
22.04000 800.804
22.21000 675.004
22.38000 539.941
22.55000 539.568
22.72000 533.078
22.89000 504.452
23.06000 483.421
23.23000 504.046
23.40000 495.767
23.57000 492.015
23.74000 485.828
23.91000 493.631
24.08000 484.549
24.25000 471.558
24.42000 507.037
24.59000 494.861
24.76000 479.421
24.93000 470.588
25.10000 461.832
25.27000 489.392
25.44000 470.736
25.61000 465.902
25.78000 468.955
25.95000 463.772
26.12000 461.608
26.29000 463.549
26.46000 447.730
26.63000 469.826
26.80000 452.004
26.97000 463.653
27.14000 429.341
27.31000 428.440
27.48000 440.723
27.65000 422.634
27.82000 410.647
27.99000 423.294
28.16000 438.077
28.33000 430.657
28.50000 411.638
28.67000 423.859
28.84000 409.288
29.01000 416.822
29.18000 408.613
29.35000 407.342
29.52000 425.681
29.69000 427.871
29.86000 423.647
30.03000 446.073
30.20000 415.453
30.37000 423.789
30.54000 414.708
30.71000 437.486
30.88000 504.947
31.05000 651.167
31.22000 1993.083
31.39000 3875.128
31.56000 1797.814
31.73000 589.365
31.90000 444.507
32.07000 410.585
32.24000 406.436
32.41000 370.239
32.58000 369.728
32.75000 358.791
32.92000 359.273
33.09000 344.943
33.26000 334.212
33.43000 354.786
33.60000 341.883
33.77000 333.393
33.94000 324.800
34.11000 314.588
34.28000 313.344
34.45000 336.241
34.62000 325.078
34.79000 327.694
34.96000 326.385
35.13000 322.648
35.30000 307.983
35.47000 312.238
35.64000 303.989
35.81000 286.793
35.98000 305.349
36.15000 309.379
36.32000 286.203
36.49000 289.713
36.66000 288.750
36.83000 297.050
37.00000 306.705
37.17000 298.894
37.34000 289.620
37.51000 296.051
37.68000 303.566
37.85000 287.844
38.02000 295.583
38.19000 295.314
38.36000 325.231
38.53000 508.607
38.70000 821.083
38.87000 584.878
39.04000 333.165
39.21000 280.069
39.38000 286.633
39.55000 267.982
39.72000 255.128
39.89000 267.863
40.06000 255.120
40.23000 264.010
40.40000 258.231
40.57000 261.710
40.74000 247.557
40.91000 260.714
41.08000 245.585
41.25000 257.765
41.42000 246.591
41.59000 241.375
41.76000 236.485
41.93000 228.204
42.10000 236.174
42.27000 228.288
42.44000 234.192
42.61000 218.753
42.78000 235.882
42.95000 229.225
43.12000 225.694
43.29000 222.106
43.46000 217.293
43.63000 211.748
43.80000 222.500
43.97000 211.263
44.14000 224.151
44.31000 233.619
44.48000 225.103
44.65000 238.508
44.82000 280.340
44.99000 420.980
45.16000 430.815
45.33000 306.859
45.50000 253.739
45.67000 211.162
45.84000 216.493
46.01000 199.633
46.18000 203.280
46.35000 195.019
46.52000 198.264
46.69000 203.786
46.86000 190.565
47.03000 186.563
47.20000 194.034
47.37000 179.395
47.54000 186.397
47.71000 187.837
47.88000 181.796
48.05000 179.064
48.22000 181.839
48.39000 178.837
48.56000 189.420
48.73000 177.177
48.90000 183.474
49.07000 178.623
49.24000 173.586
49.41000 179.360
49.58000 174.657
49.75000 183.690
49.92000 172.470
50.09000 180.046
50.26000 186.613
50.43000 188.285
50.60000 248.478
50.77000 296.335
50.94000 216.416
51.11000 183.614
51.28000 175.237
51.45000 161.105
51.62000 175.150
51.79000 158.832
51.96000 163.055
52.13000 168.136
52.30000 164.097
52.47000 156.081
52.64000 163.001
52.81000 160.390
52.98000 162.374
53.15000 167.351
53.32000 150.953
53.49000 159.578
53.66000 163.310
53.83000 153.786
54.00000 151.118
54.17000 161.986
54.34000 164.856
54.51000 163.060
54.68000 163.722
54.85000 158.115
55.02000 164.020
55.19000 163.752
55.36000 176.424
55.53000 201.036
55.70000 337.691
55.87000 616.950
56.04000 596.244
56.21000 327.182
56.38000 192.756
56.55000 159.573
56.72000 153.313
56.89000 146.675
57.06000 146.171
57.23000 149.235
57.40000 150.657
57.57000 155.316
57.74000 144.228
57.91000 140.933
58.08000 137.824
58.25000 133.827
58.42000 144.631
58.59000 142.196
58.76000 127.769
58.93000 130.365
59.10000 134.240
59.27000 135.254
59.44000 134.241
59.61000 133.490
59.78000 129.429
59.95000 120.104
60.12000 133.248
60.29000 130.349
60.46000 136.457
60.63000 133.288
60.80000 127.694
60.97000 135.118
61.14000 139.568
61.31000 140.120
61.48000 148.129
61.65000 298.837
61.82000 217.827
61.99000 139.609
62.16000 139.534
62.33000 138.301
62.50000 149.931
62.67000 138.947
62.84000 134.772
63.01000 142.226
63.18000 141.729
63.35000 145.381
63.52000 133.778
63.69000 150.051
63.86000 149.310
64.03000 154.574
64.20000 154.809
64.37000 157.726
64.54000 166.619
64.71000 177.075
64.88000 190.697
65.05000 207.289
65.22000 241.066
65.39000 340.224
65.56000 457.644
65.73000 812.397
65.90000 1274.136
66.07000 381.680
66.24000 322.426
66.41000 494.355
66.58000 365.467
66.75000 318.827
66.92000 361.834
67.09000 386.398
67.26000 402.617
67.43000 435.073
67.60000 445.109
67.77000 501.235
67.94000 542.152
68.11000 607.095
68.28000 684.540
68.45000 806.452
68.62000 1206.647
68.79000 2307.901
68.96000 19368.957
69.13000 76473.742
69.30000 43929.414
69.47000 9593.176
69.64000 1437.792
69.81000 921.539
69.98000 727.786
70.00000 748.096

File: BTO_Mapping_Theta2Theta_09-17-2025_001_13_15-000_-15-000.xy
20.00000 530.036
20.17000 564.695
20.34000 539.598
20.51000 558.383
20.68000 553.636
20.85000 539.609
21.02000 550.684
21.19000 531.792
21.36000 564.690
21.53000 549.131
21.70000 544.465
21.87000 585.125
22.04000 654.291
22.21000 631.109
22.38000 550.757
22.55000 529.813
22.72000 510.121
22.89000 504.946
23.06000 516.265
23.23000 496.221
23.40000 497.072
23.57000 499.718
23.74000 494.388
23.91000 495.513
24.08000 494.307
24.25000 471.982
24.42000 479.139
24.59000 487.300
24.76000 477.586
24.93000 460.159
25.10000 466.968
25.27000 458.162
25.44000 460.472
25.61000 458.399
25.78000 435.719
25.95000 469.753
26.12000 465.221
26.29000 442.212
26.46000 442.901
26.63000 426.354
26.80000 442.804
26.97000 434.853
27.14000 432.999
27.31000 432.116
27.48000 427.978
27.65000 433.267
27.82000 431.027
27.99000 425.942
28.16000 429.079
28.33000 423.898
28.50000 426.989
28.67000 418.320
28.84000 408.498
29.01000 404.509
29.18000 398.234
29.35000 413.865
29.52000 414.185
29.69000 409.977
29.86000 390.723
30.03000 441.149
30.20000 422.375
30.37000 406.820
30.54000 421.578
30.71000 432.389
30.88000 472.056
31.05000 595.577
31.22000 1614.969
31.39000 3288.481
31.56000 1790.850
31.73000 584.806
31.90000 456.982
32.07000 409.845
32.24000 397.208
32.41000 381.481
32.58000 375.063
32.75000 351.969
32.92000 346.031
33.09000 348.090
33.26000 335.534
33.43000 335.122
33.60000 340.355
33.77000 344.352
33.94000 331.587
34.11000 318.738
34.28000 327.922
34.45000 314.438
34.62000 321.273
34.79000 314.190
34.96000 321.828
35.13000 312.582
35.30000 312.003
35.47000 304.401
35.64000 316.261
35.81000 306.806
35.98000 291.296
36.15000 304.502
36.32000 293.856
36.49000 301.189
36.66000 303.221
36.83000 296.279
37.00000 293.567
37.17000 295.807
37.34000 296.659
37.51000 289.077
37.68000 291.929
37.85000 306.860
38.02000 298.621
38.19000 308.619
38.36000 324.883
38.53000 530.630
38.70000 981.080
38.87000 757.076
39.04000 366.925
39.21000 286.347
39.38000 282.048
39.55000 278.405
39.72000 260.665
39.89000 268.724
40.06000 257.056
40.23000 248.378
40.40000 261.636
40.57000 256.515
40.74000 257.139
40.91000 242.374
41.08000 236.381
41.25000 254.866
41.42000 252.080
41.59000 233.657
41.76000 236.134
41.93000 243.013
42.10000 243.158
42.27000 232.570
42.44000 220.047
42.61000 237.457
42.78000 232.556
42.95000 226.263
43.12000 215.236
43.29000 225.444
43.46000 224.644
43.63000 231.121
43.80000 217.273
43.97000 218.762
44.14000 208.987
44.31000 231.906
44.48000 213.788
44.65000 231.631
44.82000 238.685
44.99000 300.409
45.16000 326.591
45.33000 268.915
45.50000 228.624
45.67000 224.088
45.84000 202.182
46.01000 200.813
46.18000 209.160
46.35000 210.596
46.52000 209.593
46.69000 198.186
46.86000 201.084
47.03000 186.187
47.20000 187.455
47.37000 194.891
47.54000 187.202
47.71000 180.814
47.88000 177.858
48.05000 185.013
48.22000 191.238
48.39000 184.706
48.56000 170.319
48.73000 174.804
48.90000 179.467
49.07000 181.661
49.24000 165.189
49.41000 173.733
49.58000 172.185
49.75000 175.028
49.92000 169.785
50.09000 182.086
50.26000 172.552
50.43000 183.111
50.60000 235.762
50.77000 265.369
50.94000 208.824
51.11000 178.857
51.28000 166.781
51.45000 161.155
51.62000 163.211
51.79000 162.245
51.96000 157.677
52.13000 168.537
52.30000 153.894
52.47000 158.433
52.64000 161.762
52.81000 169.076
52.98000 150.596
53.15000 155.479
53.32000 160.695
53.49000 164.518
53.66000 163.388
53.83000 150.808
54.00000 151.526
54.17000 155.223
54.34000 148.013
54.51000 147.153
54.68000 143.601
54.85000 147.718
55.02000 148.168
55.19000 144.811
55.36000 157.177
55.53000 188.282
55.70000 297.033
55.87000 542.738
56.04000 624.440
56.21000 364.147
56.38000 205.728
56.55000 156.159
56.72000 156.114
56.89000 145.115
57.06000 145.911
57.23000 139.003
57.40000 138.698
57.57000 147.284
57.74000 148.796
57.91000 147.148
58.08000 131.746
58.25000 143.388
58.42000 146.853
58.59000 133.841
58.76000 138.868
58.93000 141.756
59.10000 141.309
59.27000 135.219
59.44000 137.702
59.61000 126.575
59.78000 132.342
59.95000 131.375
60.12000 126.780
60.29000 126.159
60.46000 133.347
60.63000 146.354
60.80000 138.701
60.97000 129.102
61.14000 126.264
61.31000 131.158
61.48000 138.908
61.65000 257.667
61.82000 178.702
61.99000 136.033
62.16000 146.135
62.33000 130.547
62.50000 140.927
62.67000 130.317
62.84000 135.567
63.01000 132.689
63.18000 149.818
63.35000 156.087
63.52000 143.757
63.69000 153.058
63.86000 146.030
64.03000 165.377
64.20000 154.101
64.37000 158.975
64.54000 154.815
64.71000 173.245
64.88000 182.724
65.05000 193.819
65.22000 214.076
65.39000 313.236
65.56000 401.239
65.73000 654.987
65.90000 955.680
66.07000 336.819
66.24000 280.939
66.41000 375.434
66.58000 308.569
66.75000 309.246
66.92000 303.448
67.09000 324.405
67.26000 330.608
67.43000 372.099
67.60000 415.705
67.77000 438.313
67.94000 496.830
68.11000 508.483
68.28000 568.056
68.45000 699.067
68.62000 952.259
68.79000 1747.054
68.96000 11938.014
69.13000 51008.055
69.30000 29449.070
69.47000 6469.980
69.64000 1135.771
69.81000 778.427
69.98000 632.885
70.00000 637.076

File: BTO_Mapping_Theta2Theta_09-17-2025_001_15_45-000_-15-000.xy
20.00000 552.169
20.17000 585.505
20.34000 549.754
20.51000 526.172
20.68000 549.788
20.85000 532.534
21.02000 548.975
21.19000 547.397
21.36000 526.935
21.53000 531.846
21.70000 547.262
21.87000 570.210
22.04000 595.298
22.21000 586.442
22.38000 542.781
22.55000 532.733
22.72000 514.516
22.89000 532.582
23.06000 511.095
23.23000 511.884
23.40000 494.176
23.57000 483.560
23.74000 493.243
23.91000 498.572
24.08000 494.947
24.25000 482.636
24.42000 469.408
24.59000 489.326
24.76000 476.372
24.93000 495.697
25.10000 468.672
25.27000 469.318
25.44000 449.960
25.61000 452.023
25.78000 447.589
25.95000 459.502
26.12000 457.557
26.29000 426.576
26.46000 456.899
26.63000 444.007
26.80000 427.325
26.97000 430.581
27.14000 427.136
27.31000 429.622
27.48000 427.223
27.65000 411.024
27.82000 423.293
27.99000 412.644
28.16000 421.770
28.33000 427.392
28.50000 424.998
28.67000 419.673
28.84000 411.753
29.01000 407.889
29.18000 413.157
29.35000 407.471
29.52000 389.022
29.69000 400.449
29.86000 397.565
30.03000 385.036
30.20000 392.848
30.37000 393.546
30.54000 385.734
30.71000 383.221
30.88000 422.536
31.05000 473.060
31.22000 706.776
31.39000 762.505
31.56000 537.287
31.73000 410.441
31.90000 379.421
32.07000 368.872
32.24000 355.910
32.41000 365.509
32.58000 352.385
32.75000 336.482
32.92000 339.070
33.09000 344.743
33.26000 328.210
33.43000 334.295
33.60000 338.132
33.77000 333.575
33.94000 332.907
34.11000 319.518
34.28000 325.557
34.45000 328.719
34.62000 323.007
34.79000 325.432
34.96000 303.314
35.13000 321.137
35.30000 290.171
35.47000 300.144
35.64000 305.757
35.81000 285.267
35.98000 299.391
36.15000 288.392
36.32000 298.032
36.49000 279.067
36.66000 281.271
36.83000 284.416
37.00000 298.000
37.17000 286.661
37.34000 288.741
37.51000 279.637
37.68000 285.074
37.85000 292.953
38.02000 296.166
38.19000 281.953
38.36000 271.220
38.53000 365.914
38.70000 448.044
38.87000 335.747
39.04000 286.464
39.21000 267.148
39.38000 271.527
39.55000 248.357
39.72000 245.693
39.89000 249.332
40.06000 251.588
40.23000 245.509
40.40000 254.064
40.57000 238.624
40.74000 237.488
40.91000 232.521
41.08000 238.564
41.25000 236.737
41.42000 241.374
41.59000 235.278
41.76000 228.323
41.93000 231.594
42.10000 233.584
42.27000 209.776
42.44000 244.754
42.61000 234.806
42.78000 214.157
42.95000 235.412
43.12000 224.398
43.29000 232.420
43.46000 207.722
43.63000 219.839
43.80000 216.543
43.97000 199.465
44.14000 217.106
44.31000 216.414
44.48000 219.010
44.65000 230.447
44.82000 234.711
44.99000 247.073
45.16000 246.230
45.33000 234.802
45.50000 230.446
45.67000 203.273
45.84000 196.329
46.01000 216.951
46.18000 188.956
46.35000 200.438
46.52000 192.183
46.69000 200.204
46.86000 208.865
47.03000 200.649
47.20000 186.292
47.37000 182.310
47.54000 195.491
47.71000 189.625
47.88000 177.922
48.05000 180.027
48.22000 184.298
48.39000 172.693
48.56000 183.051
48.73000 176.271
48.90000 182.104
49.07000 178.844
49.24000 176.803
49.41000 178.214
49.58000 187.274
49.75000 172.992
49.92000 168.304
50.09000 167.147
50.26000 174.868
50.43000 187.568
50.60000 173.634
50.77000 174.740
50.94000 164.615
51.11000 166.001
51.28000 164.200
51.45000 164.094
51.62000 151.992
51.79000 155.845
51.96000 149.644
52.13000 157.060
52.30000 165.698
52.47000 149.433
52.64000 157.932
52.81000 158.395
52.98000 146.487
53.15000 157.235
53.32000 158.384
53.49000 152.567
53.66000 160.895
53.83000 148.694
54.00000 147.951
54.17000 142.570
54.34000 145.794
54.51000 151.532
54.68000 153.263
54.85000 152.412
55.02000 148.569
55.19000 153.355
55.36000 140.656
55.53000 173.668
55.70000 201.884
55.87000 222.794
56.04000 213.884
56.21000 159.030
56.38000 145.883
56.55000 146.246
56.72000 144.074
56.89000 133.096
57.06000 130.883
57.23000 134.255
57.40000 145.010
57.57000 133.280
57.74000 138.977
57.91000 132.883
58.08000 135.629
58.25000 130.665
58.42000 138.317
58.59000 119.865
58.76000 139.583
58.93000 144.584
59.10000 134.010
59.27000 127.792
59.44000 127.943
59.61000 135.104
59.78000 124.382
59.95000 133.964
60.12000 116.568
60.29000 147.876
60.46000 122.646
60.63000 129.187
60.80000 142.152
60.97000 145.076
61.14000 144.559
61.31000 131.878
61.48000 147.384
61.65000 255.158
61.82000 184.832
61.99000 142.273
62.16000 143.883
62.33000 135.099
62.50000 140.427
62.67000 141.754
62.84000 142.389
63.01000 148.539
63.18000 134.005
63.35000 151.729
63.52000 156.746
63.69000 143.109
63.86000 154.813
64.03000 160.487
64.20000 158.447
64.37000 160.471
64.54000 170.793
64.71000 177.291
64.88000 179.562
65.05000 191.413
65.22000 199.247
65.39000 225.461
65.56000 242.566
65.73000 490.918
65.90000 924.316
66.07000 353.232
66.24000 295.309
66.41000 416.532
66.58000 319.873
66.75000 331.790
66.92000 322.376
67.09000 350.107
67.26000 386.993
67.43000 405.743
67.60000 431.152
67.77000 475.424
67.94000 523.445
68.11000 562.289
68.28000 641.564
68.45000 720.534
68.62000 979.653
68.79000 1784.823
68.96000 10399.731
69.13000 53688.699
69.30000 32020.010
69.47000 7930.348
69.64000 1222.035
69.81000 852.846
69.98000 663.828
70.00000 662.771

File: BTO_Mapping_Theta2Theta_09-17-2025_001_16_-45-000_0-000.xy
20.00000 564.801
20.17000 544.654
20.34000 557.120
20.51000 547.279
20.68000 555.786
20.85000 554.454
21.02000 564.657
21.19000 550.481
21.36000 562.890
21.53000 542.203
21.70000 603.092
21.87000 790.565
22.04000 888.180
22.21000 636.739
22.38000 549.678
22.55000 568.753
22.72000 518.108
22.89000 526.723
23.06000 518.005
23.23000 536.443
23.40000 503.956
23.57000 519.188
23.74000 496.113
23.91000 494.863
24.08000 500.911
24.25000 484.092
24.42000 495.958
24.59000 486.770
24.76000 464.520
24.93000 478.728
25.10000 495.738
25.27000 468.020
25.44000 479.658
25.61000 474.231
25.78000 461.482
25.95000 475.177
26.12000 470.371
26.29000 462.877
26.46000 446.523
26.63000 466.261
26.80000 445.150
26.97000 448.069
27.14000 455.627
27.31000 442.103
27.48000 466.838
27.65000 443.782
27.82000 460.559
27.99000 454.774
28.16000 442.961
28.33000 452.409
28.50000 430.996
28.67000 441.841
28.84000 429.804
29.01000 447.019
29.18000 433.066
29.35000 418.490
29.52000 425.069
29.69000 401.716
29.86000 462.911
30.03000 456.749
30.20000 439.466
30.37000 459.779
30.54000 464.133
30.71000 477.974
30.88000 557.796
31.05000 1605.871
31.22000 4316.270
31.39000 2503.043
31.56000 799.993
31.73000 496.404
31.90000 437.917
32.07000 415.694
32.24000 394.652
32.41000 382.562
32.58000 373.133
32.75000 364.451
32.92000 353.678
33.09000 343.556
33.26000 368.868
33.43000 350.554
33.60000 356.779
33.77000 338.174
33.94000 333.986
34.11000 344.840
34.28000 328.478
34.45000 340.795
34.62000 330.702
34.79000 324.191
34.96000 326.894
35.13000 329.054
35.30000 312.229
35.47000 325.324
35.64000 319.757
35.81000 298.846
35.98000 318.030
36.15000 304.312
36.32000 284.191
36.49000 313.357
36.66000 308.224
36.83000 317.753
37.00000 310.082
37.17000 302.601
37.34000 301.760
37.51000 312.411
37.68000 295.439
37.85000 295.506
38.02000 293.903
38.19000 304.034
38.36000 331.705
38.53000 359.008
38.70000 359.939
38.87000 302.843
39.04000 300.461
39.21000 263.500
39.38000 267.529
39.55000 268.161
39.72000 265.396
39.89000 258.165
40.06000 264.559
40.23000 249.988
40.40000 262.711
40.57000 244.326
40.74000 259.480
40.91000 251.197
41.08000 245.040
41.25000 242.440
41.42000 238.591
41.59000 236.451
41.76000 239.873
41.93000 248.789
42.10000 236.524
42.27000 229.297
42.44000 237.779
42.61000 226.834
42.78000 225.762
42.95000 236.073
43.12000 232.561
43.29000 229.401
43.46000 229.065
43.63000 231.992
43.80000 228.092
43.97000 232.889
44.14000 229.192
44.31000 246.442
44.48000 294.434
44.65000 417.264
44.82000 615.146
44.99000 553.556
45.16000 395.058
45.33000 290.033
45.50000 251.530
45.67000 229.688
45.84000 206.295
46.01000 201.378
46.18000 198.633
46.35000 200.389
46.52000 206.706
46.69000 203.787
46.86000 198.743
47.03000 205.618
47.20000 187.640
47.37000 183.440
47.54000 184.008
47.71000 185.427
47.88000 194.235
48.05000 188.625
48.22000 195.545
48.39000 187.561
48.56000 192.606
48.73000 189.204
48.90000 192.565
49.07000 177.394
49.24000 186.579
49.41000 185.495
49.58000 192.306
49.75000 182.594
49.92000 180.097
50.09000 188.074
50.26000 224.525
50.43000 270.180
50.60000 245.774
50.77000 223.359
50.94000 183.034
51.11000 180.768
51.28000 176.643
51.45000 169.166
51.62000 172.633
51.79000 170.524
51.96000 157.939
52.13000 164.895
52.30000 170.390
52.47000 164.090
52.64000 160.440
52.81000 159.847
52.98000 173.071
53.15000 165.831
53.32000 159.533
53.49000 165.945
53.66000 161.231
53.83000 158.532
54.00000 153.790
54.17000 166.877
54.34000 164.450
54.51000 165.067
54.68000 174.209
54.85000 163.873
55.02000 175.700
55.19000 179.891
55.36000 263.984
55.53000 553.616
55.70000 585.710
55.87000 375.132
56.04000 219.002
56.21000 178.779
56.38000 170.549
56.55000 160.062
56.72000 150.349
56.89000 151.812
57.06000 150.586
57.23000 144.932
57.40000 162.296
57.57000 154.676
57.74000 148.814
57.91000 137.221
58.08000 133.052
58.25000 136.825
58.42000 136.278
58.59000 134.626
58.76000 135.607
58.93000 138.752
59.10000 137.362
59.27000 135.173
59.44000 151.394
59.61000 137.101
59.78000 132.006
59.95000 129.369
60.12000 142.662
60.29000 132.836
60.46000 136.841
60.63000 138.610
60.80000 145.264
60.97000 139.059
61.14000 144.395
61.31000 142.473
61.48000 157.544
61.65000 362.211
61.82000 249.618
61.99000 151.290
62.16000 155.841
62.33000 147.923
62.50000 151.347
62.67000 142.956
62.84000 137.802
63.01000 148.987
63.18000 144.958
63.35000 158.931
63.52000 168.126
63.69000 166.417
63.86000 164.090
64.03000 166.437
64.20000 163.443
64.37000 170.364
64.54000 189.293
64.71000 204.959
64.88000 256.632
65.05000 423.180
65.22000 522.224
65.39000 433.176
65.56000 351.272
65.73000 814.999
65.90000 1527.074
66.07000 474.434
66.24000 376.528
66.41000 588.170
66.58000 395.514
66.75000 365.515
66.92000 400.160
67.09000 414.645
67.26000 446.983
67.43000 484.746
67.60000 524.926
67.77000 546.938
67.94000 612.961
68.11000 663.016
68.28000 762.269
68.45000 904.456
68.62000 1408.167
68.79000 2843.592
68.96000 21192.262
69.13000 98818.117
69.30000 58830.688
69.47000 14140.686
69.64000 1768.322
69.81000 1105.603
69.98000 826.843
70.00000 812.257