Folder: Master-Thesis/XRD/XRD/17-09-2025/XY Data

File: BTO_Mapping_Theta2Theta_09-17-2025_001_02_0-000_-45-000.xy
20.00000 568.943
20.17000 597.683
20.34000 552.164
20.51000 548.352
20.68000 537.506
20.85000 525.627
21.02000 544.754
21.19000 538.255
21.36000 535.198
21.53000 538.854
21.70000 543.803
21.87000 601.395
22.04000 695.299
22.21000 660.520
22.38000 558.308
22.55000 544.789
22.72000 511.707
22.89000 520.142
23.06000 480.234
23.23000 490.250
23.40000 487.382
23.57000 498.563
23.74000 484.662
23.91000 504.002
24.08000 483.106
24.25000 494.996
24.42000 467.635
24.59000 472.468
24.76000 475.283
24.93000 482.865
25.10000 500.825
25.27000 467.927
25.44000 463.531
25.61000 472.924
25.78000 477.534
25.95000 456.924
26.12000 461.187
26.29000 441.046
26.46000 456.898
26.63000 457.067
26.80000 445.508
26.97000 440.431
27.14000 435.477
27.31000 440.394
27.48000 432.539
27.65000 419.379
27.82000 434.550
27.99000 417.062
28.16000 433.456
28.33000 426.407
28.50000 429.469
28.67000 405.644
28.84000 423.684
29.01000 417.324
29.18000 407.078
29.35000 420.052
29.52000 414.243
29.69000 418.149
29.86000 432.514
30.03000 431.128
30.20000 443.866
30.37000 418.891
30.54000 425.592
30.71000 425.354
30.88000 476.747
31.05000 656.505
31.22000 1801.465
31.39000 3934.622
31.56000 2201.894
31.73000 615.628
31.90000 446.559
32.07000 421.949
32.24000 394.462
32.41000 392.538
32.58000 375.560
32.75000 381.012
32.92000 357.710
33.09000 359.279
33.26000 346.380
33.43000 339.536
33.60000 344.672
33.77000 336.669
33.94000 347.325
34.11000 323.056
34.28000 338.299
34.45000 321.913
34.62000 321.432
34.79000 332.505
34.96000 283.231
35.13000 315.522
35.30000 303.346
35.47000 307.445
35.64000 303.661
35.81000 295.107
35.98000 300.029
36.15000 289.555
36.32000 296.757
36.49000 304.383
36.66000 294.335
36.83000 293.588
37.00000 303.957
37.17000 291.509
37.34000 302.650
37.51000 284.551
37.68000 289.317
37.85000 281.777
38.02000 279.692
38.19000 294.877
38.36000 319.446
38.53000 462.329
38.70000 808.198
38.87000 689.953
39.04000 337.346
39.21000 282.895
39.38000 272.336
39.55000 254.825
39.72000 267.636
39.89000 248.952
40.06000 269.173
40.23000 260.779
40.40000 259.295
40.57000 258.162
40.74000 252.190
40.91000 257.253
41.08000 242.018
41.25000 232.167
41.42000 242.309
41.59000 238.731
41.76000 238.925
41.93000 245.719
42.10000 232.191
42.27000 233.062
42.44000 241.266
42.61000 231.965
42.78000 242.619
42.95000 221.759
43.12000 222.580
43.29000 230.450
43.46000 214.969
43.63000 226.183
43.80000 227.626
43.97000 217.740
44.14000 218.705
44.31000 212.733
44.48000 219.115
44.65000 217.485
44.82000 252.267
44.99000 337.214
45.16000 382.844
45.33000 315.382
45.50000 244.814
45.67000 225.890
45.84000 202.348
46.01000 198.474
46.18000 203.373
46.35000 205.605
46.52000 199.422
46.69000 201.682
46.86000 196.197
47.03000 196.178
47.20000 189.421
47.37000 181.419
47.54000 184.472
47.71000 186.958
47.88000 176.053
48.05000 175.958
48.22000 193.176
48.39000 181.572
48.56000 179.419
48.73000 171.125
48.90000 169.308
49.07000 182.501
49.24000 177.175
49.41000 181.405
49.58000 170.850
49.75000 171.105
49.92000 178.506
50.09000 177.883
50.26000 177.692
50.43000 209.349
50.60000 234.141
50.77000 281.881
50.94000 231.359
51.11000 194.701
51.28000 169.238
51.45000 163.269
51.62000 162.734
51.79000 160.485
51.96000 160.289
52.13000 164.626
52.30000 149.624
52.47000 154.017
52.64000 157.578
52.81000 165.618
52.98000 157.160
53.15000 159.676
53.32000 169.833
53.49000 154.267
53.66000 150.587
53.83000 159.992
54.00000 148.355
54.17000 151.772
54.34000 165.528
54.51000 148.722
54.68000 154.673
54.85000 147.443
55.02000 157.300
55.19000 149.503
55.36000 166.408
55.53000 191.842
55.70000 289.497
55.87000 552.814
56.04000 617.251
56.21000 399.147
56.38000 220.210
56.55000 172.617
56.72000 155.522
56.89000 140.490
57.06000 140.321
57.23000 147.245
57.40000 143.204
57.57000 138.530
57.74000 150.350
57.91000 139.290
58.08000 132.793
58.25000 138.205
58.42000 138.348
58.59000 127.838
58.76000 126.550
58.93000 133.927
59.10000 133.165
59.27000 130.517
59.44000 136.437
59.61000 129.004
59.78000 127.428
59.95000 130.387
60.12000 136.333
60.29000 131.284
60.46000 123.758
60.63000 130.492
60.80000 135.365
60.97000 133.461
61.14000 133.294
61.31000 142.253
61.48000 143.269
61.65000 315.229
61.82000 198.240
61.99000 137.369
62.16000 146.640
62.33000 148.151
62.50000 145.020
62.67000 141.057
62.84000 135.922
63.01000 144.709
63.18000 150.510
63.35000 151.316
63.52000 144.104
63.69000 155.991
63.86000 143.260
64.03000 153.190
64.20000 166.569
64.37000 162.644
64.54000 171.044
64.71000 181.621
64.88000 178.133
65.05000 194.110
65.22000 233.818
65.39000 307.892
65.56000 470.618
65.73000 857.722
65.90000 1300.548
66.07000 404.757
66.24000 354.895
66.41000 488.581
66.58000 372.223
66.75000 328.958
66.92000 366.392
67.09000 372.439
67.26000 405.713
67.43000 452.769
67.60000 462.546
67.77000 509.487
67.94000 571.780
68.11000 609.266
68.28000 674.707
68.45000 797.184
68.62000 1252.569
68.79000 2398.347
68.96000 20046.262
69.13000 76985.570
69.30000 44497.777
69.47000 9755.259
69.64000 1433.901
69.81000 896.034
69.98000 737.122
70.00000 753.727

File: BTO_Mapping_Theta2Theta_09-17-2025_001_03_15-000_-45-000.xy
20.00000 562.743
20.17000 550.732
20.34000 545.292
20.51000 548.150
20.68000 539.909
20.85000 544.566
21.02000 532.138
21.19000 557.274
21.36000 551.687
21.53000 530.659
21.70000 552.514
21.87000 590.787
22.04000 637.769
22.21000 624.190
22.38000 567.677
22.55000 526.296
22.72000 502.468
22.89000 498.640
23.06000 507.587
23.23000 521.478
23.40000 475.047
23.57000 504.928
23.74000 519.177
23.91000 510.415
24.08000 485.209
24.25000 485.413
24.42000 488.775
24.59000 478.250
24.76000 464.605
24.93000 481.123
25.10000 468.478
25.27000 465.065
25.44000 467.235
25.61000 452.622
25.78000 451.272
25.95000 450.718
26.12000 459.632
26.29000 449.778
26.46000 440.838
26.63000 451.915
26.80000 427.746
26.97000 439.126
27.14000 447.543
27.31000 431.559
27.48000 420.507
27.65000 429.812
27.82000 422.066
27.99000 414.588
28.16000 423.348
28.33000 415.509
28.50000 430.632
28.67000 427.357
28.84000 424.030
29.01000 411.735
29.18000 395.266
29.35000 419.119
29.52000 418.927
29.69000 387.002
29.86000 402.762
30.03000 424.974
30.20000 434.045
30.37000 421.623
30.54000 409.243
30.71000 430.822
30.88000 473.194
31.05000 658.614
31.22000 1578.035
31.39000 2786.672
31.56000 1573.267
31.73000 609.851
31.90000 442.353
32.07000 393.341
32.24000 382.798
32.41000 362.883
32.58000 380.120
32.75000 344.230
32.92000 345.575
33.09000 351.684
33.26000 342.719
33.43000 338.079
33.60000 333.620
33.77000 339.540
33.94000 349.406
34.11000 337.382
34.28000 339.486
34.45000 312.970
34.62000 314.704
34.79000 318.307
34.96000 327.917
35.13000 303.839
35.30000 302.067
35.47000 295.143
35.64000 301.008
35.81000 311.483
35.98000 311.906
36.15000 296.063
36.32000 280.546
36.49000 293.381
36.66000 293.387
36.83000 296.051
37.00000 289.184
37.17000 290.176
37.34000 291.407
37.51000 288.542
37.68000 284.134
37.85000 285.447
38.02000 289.812
38.19000 304.017
38.36000 315.111
38.53000 418.594
38.70000 574.480
38.87000 475.531
39.04000 312.451
39.21000 284.636
39.38000 264.713
39.55000 264.155
39.72000 273.094
39.89000 256.359
40.06000 257.173
40.23000 255.562
40.40000 253.174
40.57000 253.124
40.74000 241.477
40.91000 251.166
41.08000 248.008
41.25000 248.630
41.42000 245.821
41.59000 237.559
41.76000 233.869
41.93000 235.141
42.10000 240.092
42.27000 234.858
42.44000 230.790
42.61000 229.691
42.78000 235.099
42.95000 232.901
43.12000 222.469
43.29000 226.696
43.46000 214.235
43.63000 214.355
43.80000 224.553
43.97000 216.426
44.14000 218.006
44.31000 218.883
44.48000 220.746
44.65000 232.082
44.82000 259.460
44.99000 305.344
45.16000 320.486
45.33000 299.589
45.50000 252.331
45.67000 252.767
45.84000 212.239
46.01000 212.924
46.18000 196.779
46.35000 211.151
46.52000 209.489
46.69000 196.630
46.86000 182.239
47.03000 183.262
47.20000 191.081
47.37000 180.052
47.54000 198.401
47.71000 173.046
47.88000 188.343
48.05000 176.494
48.22000 183.590
48.39000 180.140
48.56000 176.420
48.73000 184.978
48.90000 184.283
49.07000 172.977
49.24000 173.765
49.41000 163.433
49.58000 177.309
49.75000 175.094
49.92000 163.784
50.09000 172.178
50.26000 177.282
50.43000 186.025
50.60000 229.514
50.77000 240.350
50.94000 197.931
51.11000 189.665
51.28000 167.035
51.45000 162.322
51.62000 162.205
51.79000 166.976
51.96000 165.127
52.13000 156.225
52.30000 161.144
52.47000 150.253
52.64000 150.678
52.81000 154.050
52.98000 152.890
53.15000 151.862
53.32000 160.021
53.49000 157.504
53.66000 154.983
53.83000 151.166
54.00000 151.953
54.17000 159.597
54.34000 151.116
54.51000 155.964
54.68000 152.042
54.85000 153.043
55.02000 159.144
55.19000 153.231
55.36000 149.682
55.53000 180.825
55.70000 245.838
55.87000 389.685
56.04000 397.544
56.21000 290.236
56.38000 192.898
56.55000 161.555
56.72000 143.157
56.89000 146.843
57.06000 142.596
57.23000 136.724
57.40000 141.460
57.57000 133.763
57.74000 132.852
57.91000 136.069
58.08000 134.995
58.25000 135.164
58.42000 132.400
58.59000 129.492
58.76000 123.925
58.93000 133.320
59.10000 133.796
59.27000 130.769
59.44000 132.162
59.61000 131.071
59.78000 125.784
59.95000 132.032
60.12000 127.386
60.29000 132.352
60.46000 131.715
60.63000 141.181
60.80000 123.867
60.97000 131.241
61.14000 146.971
61.31000 134.295
61.48000 136.295
61.65000 254.983
61.82000 183.297
61.99000 143.208
62.16000 135.545
62.33000 132.620
62.50000 140.683
62.67000 146.165
62.84000 135.704
63.01000 144.634
63.18000 147.751
63.35000 137.854
63.52000 142.444
63.69000 144.460
63.86000 153.504
64.03000 155.423
64.20000 156.684
64.37000 167.326
64.54000 152.430
64.71000 168.386
64.88000 188.221
65.05000 185.669
65.22000 232.851
65.39000 300.293
65.56000 370.656
65.73000 674.446
65.90000 986.090
66.07000 360.565
66.24000 311.560
66.41000 427.500
66.58000 326.189
66.75000 301.071
66.92000 336.016
67.09000 352.350
67.26000 358.542
67.43000 393.272
67.60000 406.494
67.77000 461.948
67.94000 511.737
68.11000 569.406
68.28000 635.142
68.45000 707.868
68.62000 1022.942
68.79000 1851.529
68.96000 14127.444
69.13000 55182.707
69.30000 31531.619
69.47000 6624.452
69.64000 1176.356
69.81000 802.161
69.98000 636.589
70.00000 647.817

File: BTO_Mapping_Theta2Theta_09-17-2025_001_04_-30-000_-30-000.xy
20.00000 563.966
20.17000 549.341
20.34000 542.378
20.51000 572.771
20.68000 554.461
20.85000 562.203
21.02000 560.958
21.19000 560.922
21.36000 562.529
21.53000 557.925
21.70000 636.340
21.87000 939.349
22.04000 1019.252
22.21000 665.115
22.38000 575.578
22.55000 542.421
22.72000 543.343
22.89000 527.962
23.06000 519.576
23.23000 513.746
23.40000 518.146
23.57000 505.995
23.74000 498.793
23.91000 500.232
24.08000 504.320
24.25000 480.846
24.42000 491.047
24.59000 485.315
24.76000 486.444
24.93000 492.795
25.10000 473.398
25.27000 477.032
25.44000 459.604
25.61000 481.160
25.78000 479.723
25.95000 462.849
26.12000 465.611
26.29000 467.464
26.46000 456.745
26.63000 457.256
26.80000 454.559
26.97000 477.196
27.14000 440.357
27.31000 440.301
27.48000 441.106
27.65000 446.633
27.82000 449.730
27.99000 435.178
28.16000 455.418
28.33000 441.236
28.50000 431.680
28.67000 433.606
28.84000 428.945
29.01000 438.647
29.18000 421.636
29.35000 401.977
29.52000 426.299
29.69000 431.178
29.86000 428.273
30.03000 446.978
30.20000 439.183
30.37000 439.389
30.54000 424.654
30.71000 463.904
30.88000 531.599
31.05000 1120.440
31.22000 3330.891
31.39000 2732.127
31.56000 824.769
31.73000 481.906
31.90000 433.490
32.07000 431.613
32.24000 409.599
32.41000 388.216
32.58000 393.229
32.75000 382.215
32.92000 376.805
33.09000 375.216
33.26000 349.786
33.43000 350.614
33.60000 338.076
33.77000 358.040
33.94000 335.423
34.11000 346.273
34.28000 316.284
34.45000 314.484
34.62000 322.459
34.79000 299.861
34.96000 324.504
35.13000 322.795
35.30000 310.213
35.47000 303.634
35.64000 314.341
35.81000 318.995
35.98000 310.960
36.15000 285.057
36.32000 315.175
36.49000 307.724
36.66000 293.503
36.83000 309.242
37.00000 303.181
37.17000 287.170
37.34000 319.040
37.51000 300.464
37.68000 305.446
37.85000 306.191
38.02000 293.242
38.19000 296.125
38.36000 379.111
38.53000 478.118
38.70000 449.259
38.87000 343.595
39.04000 289.547
39.21000 280.001
39.38000 284.089
39.55000 269.305
39.72000 262.226
39.89000 259.011
40.06000 257.756
40.23000 277.536
40.40000 244.523
40.57000 256.216
40.74000 248.783
40.91000 249.212
41.08000 248.499
41.25000 243.165
41.42000 254.876
41.59000 237.975
41.76000 249.675
41.93000 231.919
42.10000 237.954
42.27000 244.922
42.44000 240.208
42.61000 244.043
42.78000 233.046
42.95000 236.755
43.12000 234.647
43.29000 234.294
43.46000 232.320
43.63000 227.604
43.80000 215.560
43.97000 226.158
44.14000 240.079
44.31000 237.580
44.48000 281.172
44.65000 429.697
44.82000 651.842
44.99000 653.222
45.16000 452.782
45.33000 302.769
45.50000 250.376
45.67000 233.105
45.84000 212.947
46.01000 219.352
46.18000 211.887
46.35000 212.306
46.52000 206.755
46.69000 205.999
46.86000 203.117
47.03000 190.084
47.20000 199.363
47.37000 199.940
47.54000 193.113
47.71000 188.814
47.88000 183.254
48.05000 194.727
48.22000 190.980
48.39000 189.276
48.56000 182.449
48.73000 179.431
48.90000 187.809
49.07000 170.279
49.24000 179.810
49.41000 185.173
49.58000 178.557
49.75000 184.660
49.92000 186.423
50.09000 183.450
50.26000 210.421
50.43000 274.767
50.60000 286.569
50.77000 242.729
50.94000 193.432
51.11000 177.877
51.28000 172.945
51.45000 176.307
51.62000 170.722
51.79000 169.011
51.96000 166.050
52.13000 165.777
52.30000 152.048
52.47000 150.723
52.64000 166.676
52.81000 154.053
52.98000 162.479
53.15000 159.753
53.32000 166.201
53.49000 148.819
53.66000 152.898
53.83000 157.035
54.00000 154.600
54.17000 166.410
54.34000 163.118
54.51000 161.037
54.68000 163.782
54.85000 164.855
55.02000 168.952
55.19000 191.088
55.36000 208.185
55.53000 375.655
55.70000 568.758
55.87000 515.487
56.04000 316.130
56.21000 205.880
56.38000 168.245
56.55000 153.558
56.72000 154.323
56.89000 151.485
57.06000 144.524
57.23000 151.938
57.40000 147.652
57.57000 152.650
57.74000 153.220
57.91000 148.719
58.08000 139.859
58.25000 144.867
58.42000 143.195
58.59000 139.736
58.76000 146.439
58.93000 137.768
59.10000 146.428
59.27000 136.783
59.44000 141.719
59.61000 137.211
59.78000 131.836
59.95000 133.033
60.12000 135.407
60.29000 137.280
60.46000 130.230
60.63000 128.419
60.80000 134.566
60.97000 136.643
61.14000 149.174
61.31000 136.430
61.48000 158.194
61.65000 355.433
61.82000 225.870
61.99000 148.024
62.16000 146.203
62.33000 151.772
62.50000 152.666
62.67000 155.250
62.84000 145.842
63.01000 141.560
63.18000 149.589
63.35000 150.061
63.52000 147.605
63.69000 140.692
63.86000 160.738
64.03000 159.556
64.20000 163.777
64.37000 165.059
64.54000 174.784
64.71000 184.516
64.88000 201.651
65.05000 271.716
65.22000 372.878
65.39000 420.083
65.56000 383.313
65.73000 795.091
65.90000 1439.394
66.07000 428.914
66.24000 351.442
66.41000 539.395
66.58000 397.470
66.75000 339.231
66.92000 378.532
67.09000 388.693
67.26000 436.983
67.43000 453.955
67.60000 517.567
67.77000 541.873
67.94000 591.003
68.11000 647.025
68.28000 732.195
68.45000 865.573
68.62000 1381.178
68.79000 2754.736
68.96000 25034.254
69.13000 93174.891
69.30000 54521.379
69.47000 12498.534
69.64000 1702.858
69.81000 1048.712
69.98000 825.446
70.00000 810.472

File: BTO_Mapping_Theta2Theta_09-17-2025_001_05_-15-000_-30-000.xy
20.00000 558.319
20.17000 540.517
20.34000 561.793
20.51000 554.747
20.68000 556.170
20.85000 548.156
21.02000 555.804
21.19000 534.456
21.36000 561.631
21.53000 528.896
21.70000 587.098
21.87000 719.489
22.04000 848.973
22.21000 663.992
22.38000 552.920
22.55000 532.068
22.72000 528.737
22.89000 509.453
23.06000 513.729
23.23000 533.416
23.40000 486.291
23.57000 495.514
23.74000 494.943
23.91000 485.492
24.08000 497.617
24.25000 483.228
24.42000 500.304
24.59000 474.063
24.76000 482.264
24.93000 485.806
25.10000 474.887
25.27000 474.469
25.44000 484.910
25.61000 471.143
25.78000 452.689
25.95000 455.782
26.12000 469.648
26.29000 459.847
26.46000 469.368
26.63000 460.513
26.80000 424.214
26.97000 441.576
27.14000 443.022
27.31000 433.712
27.48000 446.202
27.65000 427.266
27.82000 431.217
27.99000 434.198
28.16000 424.084
28.33000 428.650
28.50000 414.826
28.67000 425.464
28.84000 421.691
29.01000 429.014
29.18000 437.372
29.35000 418.557
29.52000 409.092
29.69000 419.347
29.86000 450.428
30.03000 464.220
30.20000 429.826
30.37000 428.788
30.54000 446.949
30.71000 455.430
30.88000 503.050
31.05000 744.302
31.22000 2452.118
31.39000 4083.266
31.56000 1584.406
31.73000 556.962
31.90000 452.716
32.07000 418.832
32.24000 412.917
32.41000 391.003
32.58000 388.505
32.75000 366.471
32.92000 361.461
33.09000 373.839
33.26000 339.220
33.43000 343.388
33.60000 336.416
33.77000 328.335
33.94000 342.366
34.11000 327.819
34.28000 339.026
34.45000 330.631
34.62000 324.235
34.79000 324.062
34.96000 315.811
35.13000 302.642
35.30000 322.278
35.47000 314.963
35.64000 303.777
35.81000 313.963
35.98000 294.478
36.15000 300.368
36.32000 296.901
36.49000 305.082
36.66000 310.542
36.83000 321.255
37.00000 311.091
37.17000 287.957
37.34000 297.226
37.51000 280.887
37.68000 287.897
37.85000 293.383
38.02000 292.298
38.19000 291.245
38.36000 327.657
38.53000 505.990
38.70000 662.453
38.87000 451.785
39.04000 285.158
39.21000 273.971
39.38000 272.617
39.55000 286.195
39.72000 271.932
39.89000 262.130
40.06000 259.345
40.23000 249.193
40.40000 261.710
40.57000 244.013
40.74000 240.820
40.91000 238.364
41.08000 231.473
41.25000 247.106
41.42000 241.233
41.59000 236.436
41.76000 243.045
41.93000 235.028
42.10000 226.523
42.27000 240.123
42.44000 233.003
42.61000 234.428
42.78000 236.783
42.95000 235.173
43.12000 233.246
43.29000 219.129
43.46000 215.049
43.63000 237.215
43.80000 234.068
43.97000 231.479
44.14000 233.815
44.31000 217.455
44.48000 227.747
44.65000 265.222
44.82000 367.762
44.99000 483.160
45.16000 413.578
45.33000 281.571
45.50000 242.312
45.67000 235.047
45.84000 196.939
46.01000 196.334
46.18000 200.649
46.35000 204.195
46.52000 202.994
46.69000 194.981
46.86000 200.386
47.03000 190.126
47.20000 206.399
47.37000 191.879
47.54000 197.031
47.71000 188.032
47.88000 184.513
48.05000 181.069
48.22000 183.109
48.39000 180.691
48.56000 189.635
48.73000 181.775
48.90000 178.641
49.07000 183.141
49.24000 188.794
49.41000 172.566
49.58000 186.725
49.75000 180.992
49.92000 178.590
50.09000 183.201
50.26000 172.738
50.43000 214.926
50.60000 287.129
50.77000 282.661
50.94000 215.585
51.11000 177.660
51.28000 170.957
51.45000 167.620
51.62000 171.122
51.79000 164.041
51.96000 172.808
52.13000 170.999
52.30000 153.302
52.47000 162.381
52.64000 147.408
52.81000 152.445
52.98000 168.547
53.15000 165.178
53.32000 164.951
53.49000 165.875
53.66000 152.653
53.83000 155.541
54.00000 142.301
54.17000 167.204
54.34000 155.966
54.51000 161.233
54.68000 158.363
54.85000 164.111
55.02000 156.914
55.19000 160.910
55.36000 179.419
55.53000 233.191
55.70000 458.004
55.87000 682.869
56.04000 519.525
56.21000 266.450
56.38000 189.545
56.55000 161.235
56.72000 142.717
56.89000 139.066
57.06000 148.814
57.23000 140.406
57.40000 141.070
57.57000 133.914
57.74000 142.255
57.91000 139.708
58.08000 140.250
58.25000 139.641
58.42000 133.627
58.59000 140.017
58.76000 128.997
58.93000 140.035
59.10000 144.177
59.27000 138.495
59.44000 133.144
59.61000 139.609
59.78000 134.245
59.95000 142.255
60.12000 123.668
60.29000 139.777
60.46000 138.816
60.63000 124.103
60.80000 134.497
60.97000 131.717
61.14000 138.026
61.31000 149.723
61.48000 150.871
61.65000 333.255
61.82000 223.505
61.99000 151.102
62.16000 129.696
62.33000 150.337
62.50000 132.084
62.67000 139.883
62.84000 144.216
63.01000 139.599
63.18000 144.900
63.35000 145.799
63.52000 150.250
63.69000 149.664
63.86000 147.321
64.03000 165.170
64.20000 161.935
64.37000 170.654
64.54000 166.812
64.71000 189.654
64.88000 179.264
65.05000 204.221
65.22000 275.360
65.39000 393.102
65.56000 504.554
65.73000 891.745
65.90000 1325.707
66.07000 417.317
66.24000 350.768
66.41000 538.093
66.58000 377.424
66.75000 327.386
66.92000 367.826
67.09000 393.859
67.26000 415.849
67.43000 448.395
67.60000 482.148
67.77000 518.792
67.94000 578.731
68.11000 644.595
68.28000 735.757
68.45000 857.271
68.62000 1315.327
68.79000 2587.858
68.96000 23710.086
69.13000 85848.078
69.30000 49743.914
69.47000 10764.898
69.64000 1516.318
69.81000 1012.010
69.98000 794.824
70.00000 797.646

File: BTO_Mapping_Theta2Theta_09-17-2025_001_09_-45-000_-15-000.xy
20.00000 559.615
20.17000 546.503
20.34000 540.511
20.51000 546.212
20.68000 532.980
20.85000 555.203
21.02000 536.629
21.19000 523.256
21.36000 552.500
21.53000 509.350
21.70000 522.396
21.87000 563.318
22.04000 595.341
22.21000 527.245
22.38000 514.944
22.55000 516.487
22.72000 500.497
22.89000 521.150
23.06000 497.697
23.23000 496.750
23.40000 481.145
23.57000 473.577
23.74000 501.912
23.91000 482.653
24.08000 479.855
24.25000 478.078
24.42000 488.845
24.59000 475.866
24.76000 472.124
24.93000 475.819
25.10000 460.034
25.27000 466.685
25.44000 459.357
25.61000 464.431
25.78000 454.079
25.95000 455.023
26.12000 463.706
26.29000 447.308
26.46000 438.017
26.63000 420.091
26.80000 433.612
26.97000 430.309
27.14000 420.060
27.31000 435.721
27.48000 418.920
27.65000 421.772
27.82000 426.529
27.99000 422.339
28.16000 406.434
28.33000 405.087
28.50000 406.418
28.67000 398.913
28.84000 389.376
29.01000 391.304
29.18000 390.884
29.35000 391.285
29.52000 376.634
29.69000 369.127
29.86000 378.807
30.03000 374.756
30.20000 379.426
30.37000 381.998
30.54000 368.008
30.71000 353.564
30.88000 385.309
31.05000 393.775
31.22000 574.940
31.39000 568.715
31.56000 472.984
31.73000 386.372
31.90000 370.009
32.07000 354.895
32.24000 358.063
32.41000 336.384
32.58000 344.093
32.75000 343.219
32.92000 338.000
33.09000 337.920
33.26000 325.057
33.43000 329.055
33.60000 340.196
33.77000 316.395
33.94000 317.168
34.11000 321.178
34.28000 315.761
34.45000 303.956
34.62000 308.540
34.79000 309.790
34.96000 319.029
35.13000 314.871
35.30000 307.233
35.47000 301.368
35.64000 302.390
35.81000 282.682
35.98000 299.219
36.15000 293.939
36.32000 291.090
36.49000 280.169
36.66000 271.476
36.83000 284.191
37.00000 296.269
37.17000 284.102
37.34000 279.973
37.51000 264.817
37.68000 262.330
37.85000 254.696
38.02000 290.680
38.19000 273.159
38.36000 267.418
38.53000 270.868
38.70000 267.897
38.87000 265.956
39.04000 250.259
39.21000 255.949
39.38000 269.435
39.55000 261.960
39.72000 240.138
39.89000 244.089
40.06000 246.556
40.23000 255.649
40.40000 244.165
40.57000 241.503
40.74000 235.502
40.91000 243.638
41.08000 245.132
41.25000 237.597
41.42000 229.626
41.59000 224.654
41.76000 230.401
41.93000 218.346
42.10000 213.333
42.27000 233.342
42.44000 209.313
42.61000 225.431
42.78000 217.630
42.95000 222.915
43.12000 222.008
43.29000 215.048
43.46000 216.291
43.63000 221.615
43.80000 217.979
43.97000 207.027
44.14000 212.732
44.31000 203.296
44.48000 203.160
44.65000 209.354
44.82000 207.691
44.99000 201.074
45.16000 210.233
45.33000 204.989
45.50000 194.621
45.67000 207.556
45.84000 204.969
46.01000 190.356
46.18000 192.430
46.35000 192.457
46.52000 188.173
46.69000 199.857
46.86000 187.659
47.03000 184.578
47.20000 187.060
47.37000 200.854
47.54000 182.591
47.71000 184.677
47.88000 188.003
48.05000 166.581
48.22000 171.182
48.39000 175.439
48.56000 175.939
48.73000 165.395
48.90000 167.043
49.07000 168.595
49.24000 164.596
49.41000 156.528
49.58000 175.310
49.75000 166.765
49.92000 175.370
50.09000 154.764
50.26000 167.539
50.43000 159.728
50.60000 171.192
50.77000 164.032
50.94000 168.751
51.11000 154.294
51.28000 162.084
51.45000 159.521
51.62000 159.362
51.79000 155.138
51.96000 157.528
52.13000 163.016
52.30000 154.175
52.47000 145.428
52.64000 154.844
52.81000 161.350
52.98000 146.278
53.15000 145.317
53.32000 161.338
53.49000 162.275
53.66000 148.402
53.83000 143.660
54.00000 136.900
54.17000 142.385
54.34000 142.293
54.51000 145.371
54.68000 146.185
54.85000 157.216
55.02000 149.721
55.19000 138.729
55.36000 142.973
55.53000 147.580
55.70000 149.536
55.87000 141.852
56.04000 143.974
56.21000 142.602
56.38000 133.875
56.55000 135.541
56.72000 138.990
56.89000 133.536
57.06000 137.535
57.23000 144.672
57.40000 138.438
57.57000 136.910
57.74000 126.816
57.91000 129.923
58.08000 130.275
58.25000 132.299
58.42000 137.841
58.59000 129.722
58.76000 133.949
58.93000 124.844
59.10000 122.374
59.27000 129.710
59.44000 132.893
59.61000 131.290
59.78000 130.813
59.95000 127.587
60.12000 127.387
60.29000 133.488
60.46000 134.578
60.63000 132.229
60.80000 131.788
60.97000 139.487
61.14000 141.005
61.31000 128.164
61.48000 139.931
61.65000 259.707
61.82000 192.179
61.99000 133.982
62.16000 149.108
62.33000 137.919
62.50000 134.943
62.67000 134.110
62.84000 139.263
63.01000 141.776
63.18000 143.311
63.35000 149.261
63.52000 151.869
63.69000 146.333
63.86000 147.236
64.03000 154.212
64.20000 175.903
64.37000 160.729
64.54000 174.329
64.71000 168.448
64.88000 180.765
65.05000 173.575
65.22000 209.124
65.39000 209.490
65.56000 240.911
65.73000 475.719
65.90000 900.550
66.07000 343.029
66.24000 299.358
66.41000 433.814
66.58000 341.058
66.75000 313.706
66.92000 339.705
67.09000 373.392
67.26000 392.012
67.43000 416.916
67.60000 452.123
67.77000 493.943
67.94000 537.381
68.11000 569.159
68.28000 646.716
68.45000 755.272
68.62000 1037.689
68.79000 1845.113
68.96000 11479.603
69.13000 55385.570
69.30000 32899.070
69.47000 8126.403
69.64000 1291.486
69.81000 873.788
69.98000 703.204
70.00000 685.417