Folder: Master-Thesis/XRD/XRD/17-09-2025/XY Data (part 3)

File: BTO_Mapping_Theta2Theta_09-17-2025_001_25_-15-000_15-000.xy
20.00000 544.201
20.17000 562.338
20.34000 554.180
20.51000 560.024
20.68000 580.386
20.85000 540.864
21.02000 535.463
21.19000 544.645
21.36000 555.448
21.53000 517.964
21.70000 565.296
21.87000 690.786
22.04000 896.767
22.21000 687.355
22.38000 555.306
22.55000 522.161
22.72000 519.253
22.89000 515.673
23.06000 516.052
23.23000 519.370
23.40000 495.199
23.57000 512.102
23.74000 496.684
23.91000 500.598
24.08000 492.315
24.25000 490.744
24.42000 502.002
24.59000 479.119
24.76000 473.231
24.93000 466.172
25.10000 493.865
25.27000 478.456
25.44000 459.829
25.61000 464.435
25.78000 466.285
25.95000 460.230
26.12000 466.353
26.29000 473.722
26.46000 425.955
26.63000 453.502
26.80000 456.765
26.97000 452.847
27.14000 446.927
27.31000 448.762
27.48000 446.064
27.65000 436.782
27.82000 433.637
27.99000 395.276
28.16000 443.111
28.33000 430.361
28.50000 434.395
28.67000 428.058
28.84000 424.581
29.01000 429.134
29.18000 418.279
29.35000 432.469
29.52000 433.107
29.69000 426.491
29.86000 422.130
30.03000 452.758
30.20000 454.210
30.37000 415.279
30.54000 439.021
30.71000 449.282
30.88000 499.951
31.05000 711.143
31.22000 2297.564
31.39000 3934.433
31.56000 1650.863
31.73000 568.661
31.90000 456.779
32.07000 419.935
32.24000 405.739
32.41000 390.389
32.58000 390.358
32.75000 353.223
32.92000 372.894
33.09000 359.719
33.26000 349.878
33.43000 360.607
33.60000 355.629
33.77000 335.130
33.94000 345.099
34.11000 321.433
34.28000 341.174
34.45000 329.586
34.62000 337.169
34.79000 334.587
34.96000 313.032
35.13000 315.304
35.30000 334.290
35.47000 310.165
35.64000 313.332
35.81000 304.556
35.98000 309.295
36.15000 313.150
36.32000 298.242
36.49000 298.775
36.66000 294.257
36.83000 295.717
37.00000 293.662
37.17000 298.683
37.34000 277.036
37.51000 303.545
37.68000 291.739
37.85000 293.086
38.02000 288.018
38.19000 304.888
38.36000 323.696
38.53000 476.492
38.70000 675.413
38.87000 454.741
39.04000 314.921
39.21000 297.596
39.38000 256.998
39.55000 257.955
39.72000 265.035
39.89000 274.689
40.06000 238.739
40.23000 253.500
40.40000 266.581
40.57000 248.546
40.74000 274.954
40.91000 254.623
41.08000 265.237
41.25000 252.688
41.42000 247.287
41.59000 232.995
41.76000 232.996
41.93000 236.072
42.10000 243.277
42.27000 235.522
42.44000 227.459
42.61000 220.936
42.78000 242.644
42.95000 233.548
43.12000 227.954
43.29000 227.175
43.46000 219.734
43.63000 228.574
43.80000 225.120
43.97000 226.724
44.14000 232.430
44.31000 219.527
44.48000 223.475
44.65000 251.487
44.82000 326.423
44.99000 516.084
45.16000 463.188
45.33000 288.305
45.50000 238.147
45.67000 210.425
45.84000 220.707
46.01000 200.221
46.18000 201.109
46.35000 195.709
46.52000 198.395
46.69000 203.708
46.86000 197.266
47.03000 189.078
47.20000 187.831
47.37000 182.283
47.54000 193.744
47.71000 190.286
47.88000 185.938
48.05000 179.794
48.22000 190.019
48.39000 191.343
48.56000 183.902
48.73000 169.805
48.90000 181.977
49.07000 176.674
49.24000 181.147
49.41000 187.695
49.58000 176.924
49.75000 174.959
49.92000 182.452
50.09000 182.680
50.26000 193.635
50.43000 206.460
50.60000 287.017
50.77000 272.747
50.94000 216.936
51.11000 189.859
51.28000 185.747
51.45000 170.420
51.62000 162.485
51.79000 156.470
51.96000 162.698
52.13000 151.179
52.30000 155.481
52.47000 155.932
52.64000 162.718
52.81000 161.700
52.98000 164.460
53.15000 160.906
53.32000 160.459
53.49000 160.465
53.66000 170.867
53.83000 164.092
54.00000 156.577
54.17000 149.817
54.34000 145.915
54.51000 149.698
54.68000 154.600
54.85000 161.647
55.02000 161.289
55.19000 148.421
55.36000 168.003
55.53000 203.573
55.70000 388.623
55.87000 623.221
56.04000 540.292
56.21000 292.814
56.38000 192.183
56.55000 162.890
56.72000 160.235
56.89000 147.068
57.06000 148.386
57.23000 139.934
57.40000 149.859
57.57000 149.686
57.74000 137.694
57.91000 148.073
58.08000 139.749
58.25000 144.248
58.42000 135.940
58.59000 135.336
58.76000 130.729
58.93000 145.065
59.10000 143.378
59.27000 132.576
59.44000 140.372
59.61000 132.860
59.78000 120.940
59.95000 127.419
60.12000 143.002
60.29000 124.992
60.46000 128.869
60.63000 128.795
60.80000 141.513
60.97000 132.974
61.14000 144.120
61.31000 141.377
61.48000 154.275
61.65000 336.024
61.82000 232.794
61.99000 138.804
62.16000 142.681
62.33000 161.518
62.50000 144.618
62.67000 148.798
62.84000 151.118
63.01000 149.496
63.18000 147.018
63.35000 152.369
63.52000 148.471
63.69000 153.855
63.86000 167.616
64.03000 162.456
64.20000 153.857
64.37000 160.892
64.54000 159.540
64.71000 172.568
64.88000 186.850
65.05000 200.025
65.22000 264.315
65.39000 375.186
65.56000 474.035
65.73000 844.348
65.90000 1342.271
66.07000 411.580
66.24000 342.489
66.41000 508.214
66.58000 374.105
66.75000 353.480
66.92000 358.639
67.09000 371.985
67.26000 412.424
67.43000 441.164
67.60000 502.837
67.77000 525.374
67.94000 571.731
68.11000 635.244
68.28000 688.914
68.45000 826.163
68.62000 1259.697
68.79000 2505.902
68.96000 21082.824
69.13000 83240.227
69.30000 48615.656
69.47000 10893.085
69.64000 1539.620
69.81000 1009.037
69.98000 811.824
70.00000 784.842

File: BTO_Mapping_Theta2Theta_09-17-2025_001_26_0-000_15-000.xy
20.00000 560.002
20.17000 554.689
20.34000 552.848
20.51000 539.370
20.68000 546.657
20.85000 554.108
21.02000 556.481
21.19000 530.265
21.36000 554.400
21.53000 540.779
21.70000 566.143
21.87000 646.361
22.04000 737.891
22.21000 671.609
22.38000 547.933
22.55000 530.208
22.72000 506.570
22.89000 526.938
23.06000 486.059
23.23000 516.839
23.40000 494.454
23.57000 490.182
23.74000 508.052
23.91000 490.509
24.08000 477.101
24.25000 489.213
24.42000 477.915
24.59000 483.695
24.76000 468.968
24.93000 468.055
25.10000 482.316
25.27000 461.067
25.44000 456.895
25.61000 470.372
25.78000 449.604
25.95000 460.734
26.12000 460.174
26.29000 440.729
26.46000 453.759
26.63000 447.883
26.80000 445.990
26.97000 451.412
27.14000 435.705
27.31000 450.721
27.48000 428.861
27.65000 435.440
27.82000 413.037
27.99000 424.078
28.16000 420.197
28.33000 438.730
28.50000 419.221
28.67000 433.915
28.84000 405.784
29.01000 419.799
29.18000 410.006
29.35000 431.403
29.52000 410.480
29.69000 403.132
29.86000 419.859
30.03000 439.821
30.20000 435.368
30.37000 424.128
30.54000 449.603
30.71000 426.269
30.88000 479.195
31.05000 629.918
31.22000 1870.922
31.39000 3695.595
31.56000 1855.849
31.73000 604.244
31.90000 435.570
32.07000 415.920
32.24000 398.109
32.41000 392.662
32.58000 388.499
32.75000 368.743
32.92000 359.017
33.09000 355.723
33.26000 342.732
33.43000 346.746
33.60000 333.204
33.77000 328.767
33.94000 322.145
34.11000 321.656
34.28000 338.270
34.45000 344.012
34.62000 338.199
34.79000 330.870
34.96000 319.990
35.13000 316.481
35.30000 314.923
35.47000 315.525
35.64000 304.055
35.81000 322.989
35.98000 295.630
36.15000 298.516
36.32000 295.277
36.49000 301.078
36.66000 301.461
36.83000 296.312
37.00000 305.527
37.17000 298.678
37.34000 298.151
37.51000 297.350
37.68000 295.099
37.85000 293.697
38.02000 288.334
38.19000 311.030
38.36000 329.762
38.53000 484.001
38.70000 827.915
38.87000 644.477
39.04000 324.885
39.21000 269.359
39.38000 277.545
39.55000 254.695
39.72000 246.294
39.89000 262.815
40.06000 268.327
40.23000 243.298
40.40000 256.257
40.57000 247.337
40.74000 259.745
40.91000 235.530
41.08000 245.122
41.25000 251.959
41.42000 240.124
41.59000 238.585
41.76000 235.787
41.93000 224.355
42.10000 233.015
42.27000 221.454
42.44000 233.233
42.61000 243.755
42.78000 221.738
42.95000 236.681
43.12000 229.586
43.29000 219.420
43.46000 223.107
43.63000 216.409
43.80000 216.592
43.97000 214.308
44.14000 206.085
44.31000 215.129
44.48000 224.059
44.65000 227.352
44.82000 268.186
44.99000 361.820
45.16000 405.998
45.33000 298.720
45.50000 241.968
45.67000 225.430
45.84000 215.244
46.01000 206.249
46.18000 203.190
46.35000 207.474
46.52000 194.818
46.69000 201.990
46.86000 195.066
47.03000 184.333
47.20000 181.798
47.37000 193.913
47.54000 188.731
47.71000 181.397
47.88000 179.507
48.05000 187.056
48.22000 175.013
48.39000 184.289
48.56000 180.332
48.73000 184.038
48.90000 177.004
49.07000 168.491
49.24000 179.389
49.41000 177.888
49.58000 175.176
49.75000 182.200
49.92000 178.097
50.09000 181.143
50.26000 181.141
50.43000 191.753
50.60000 242.205
50.77000 273.614
50.94000 214.210
51.11000 195.412
51.28000 168.941
51.45000 161.199
51.62000 164.934
51.79000 168.286
51.96000 160.388
52.13000 169.343
52.30000 162.661
52.47000 161.298
52.64000 149.876
52.81000 161.350
52.98000 157.401
53.15000 166.514
53.32000 160.247
53.49000 166.683
53.66000 142.879
53.83000 157.304
54.00000 148.860
54.17000 149.160
54.34000 152.701
54.51000 151.647
54.68000 152.752
54.85000 148.379
55.02000 151.969
55.19000 165.867
55.36000 157.411
55.53000 205.878
55.70000 300.721
55.87000 570.989
56.04000 607.070
56.21000 326.518
56.38000 191.242
56.55000 166.319
56.72000 159.074
56.89000 148.546
57.06000 149.931
57.23000 154.909
57.40000 152.066
57.57000 154.932
57.74000 147.209
57.91000 150.259
58.08000 135.477
58.25000 138.732
58.42000 130.756
58.59000 134.596
58.76000 123.612
58.93000 141.545
59.10000 128.707
59.27000 127.841
59.44000 137.329
59.61000 130.067
59.78000 146.312
59.95000 137.542
60.12000 127.579
60.29000 130.733
60.46000 129.891
60.63000 135.676
60.80000 121.177
60.97000 133.259
61.14000 139.448
61.31000 136.927
61.48000 154.207
61.65000 281.898
61.82000 206.235
61.99000 138.523
62.16000 142.249
62.33000 140.545
62.50000 142.925
62.67000 139.241
62.84000 147.704
63.01000 143.902
63.18000 153.202
63.35000 154.382
63.52000 157.852
63.69000 154.334
63.86000 144.377
64.03000 157.741
64.20000 154.849
64.37000 163.461
64.54000 181.191
64.71000 173.700
64.88000 170.812
65.05000 205.117
65.22000 237.646
65.39000 324.737
65.56000 435.509
65.73000 757.437
65.90000 1197.630
66.07000 408.948
66.24000 315.110
66.41000 453.062
66.58000 353.717
66.75000 331.247
66.92000 353.377
67.09000 355.330
67.26000 397.902
67.43000 414.386
67.60000 458.968
67.77000 525.861
67.94000 515.926
68.11000 583.122
68.28000 637.023
68.45000 745.742
68.62000 1171.383
68.79000 2162.195
68.96000 16386.953
69.13000 72293.602
69.30000 42278.461
69.47000 9539.821
69.64000 1410.177
69.81000 911.196
69.98000 765.141
70.00000 748.810

File: BTO_Mapping_Theta2Theta_09-17-2025_001_28_30-000_15-000.xy
20.00000 570.303
20.17000 545.103
20.34000 542.769
20.51000 548.892
20.68000 537.810
20.85000 564.729
21.02000 524.389
21.19000 545.551
21.36000 523.043
21.53000 556.053
21.70000 568.973
21.87000 592.886
22.04000 650.349
22.21000 638.797
22.38000 535.127
22.55000 513.339
22.72000 522.354
22.89000 511.897
23.06000 519.159
23.23000 500.356
23.40000 489.317
23.57000 502.207
23.74000 516.376
23.91000 519.737
24.08000 520.194
24.25000 515.445
24.42000 488.516
24.59000 476.095
24.76000 474.210
24.93000 475.088
25.10000 476.070
25.27000 467.493
25.44000 447.144
25.61000 448.417
25.78000 459.288
25.95000 456.453
26.12000 464.205
26.29000 465.816
26.46000 434.180
26.63000 409.710
26.80000 453.582
26.97000 456.133
27.14000 420.555
27.31000 435.529
27.48000 434.198
27.65000 426.322
27.82000 451.220
27.99000 417.656
28.16000 413.594
28.33000 438.090
28.50000 416.071
28.67000 412.091
28.84000 405.052
29.01000 413.459
29.18000 405.398
29.35000 396.936
29.52000 396.256
29.69000 397.857
29.86000 398.703
30.03000 409.691
30.20000 397.273
30.37000 401.848
30.54000 399.118
30.71000 426.280
30.88000 429.957
31.05000 570.835
31.22000 1082.871
31.39000 1955.882
31.56000 1163.304
31.73000 524.368
31.90000 430.112
32.07000 395.779
32.24000 378.283
32.41000 368.709
32.58000 365.708
32.75000 342.115
32.92000 360.119
33.09000 342.012
33.26000 338.462
33.43000 337.719
33.60000 351.360
33.77000 337.263
33.94000 340.386
34.11000 350.301
34.28000 341.690
34.45000 344.682
34.62000 350.421
34.79000 338.602
34.96000 321.446
35.13000 316.761
35.30000 318.615
35.47000 300.092
35.64000 297.609
35.81000 299.815
35.98000 308.617
36.15000 296.563
36.32000 278.461
36.49000 308.396
36.66000 295.938
36.83000 294.129
37.00000 290.574
37.17000 304.141
37.34000 295.832
37.51000 290.112
37.68000 286.643
37.85000 278.875
38.02000 288.997
38.19000 305.835
38.36000 315.839
38.53000 515.748
38.70000 1020.685
38.87000 840.182
39.04000 394.131
39.21000 296.452
39.38000 273.266
39.55000 284.230
39.72000 254.090
39.89000 288.030
40.06000 274.612
40.23000 262.050
40.40000 251.640
40.57000 256.356
40.74000 233.299
40.91000 244.166
41.08000 230.038
41.25000 246.535
41.42000 239.910
41.59000 238.733
41.76000 226.954
41.93000 243.108
42.10000 234.863
42.27000 233.236
42.44000 239.527
42.61000 228.774
42.78000 229.421
42.95000 221.711
43.12000 244.777
43.29000 224.117
43.46000 220.349
43.63000 219.620
43.80000 211.562
43.97000 225.593
44.14000 207.435
44.31000 214.788
44.48000 213.271
44.65000 226.454
44.82000 252.546
44.99000 293.596
45.16000 322.103
45.33000 268.977
45.50000 247.993
45.67000 219.234
45.84000 216.686
46.01000 197.244
46.18000 202.226
46.35000 204.295
46.52000 196.206
46.69000 207.301
46.86000 183.095
47.03000 197.887
47.20000 187.238
47.37000 192.503
47.54000 181.882
47.71000 179.112
47.88000 180.035
48.05000 178.103
48.22000 182.593
48.39000 174.987
48.56000 181.965
48.73000 174.944
48.90000 179.325
49.07000 174.770
49.24000 176.784
49.41000 176.423
49.58000 179.094
49.75000 182.091
49.92000 170.365
50.09000 168.116
50.26000 185.041
50.43000 188.563
50.60000 207.455
50.77000 218.211
50.94000 206.998
51.11000 179.243
51.28000 170.033
51.45000 153.861
51.62000 154.798
51.79000 172.035
51.96000 167.651
52.13000 166.503
52.30000 158.061
52.47000 155.452
52.64000 164.048
52.81000 162.757
52.98000 151.808
53.15000 153.078
53.32000 171.739
53.49000 165.895
53.66000 167.641
53.83000 158.233
54.00000 150.222
54.17000 153.421
54.34000 145.287
54.51000 165.883
54.68000 161.157
54.85000 162.954
55.02000 154.592
55.19000 149.655
55.36000 175.218
55.53000 199.060
55.70000 281.653
55.87000 496.200
56.04000 554.323
56.21000 345.887
56.38000 202.885
56.55000 171.090
56.72000 152.749
56.89000 150.128
57.06000 145.228
57.23000 135.259
57.40000 151.722
57.57000 143.061
57.74000 148.506
57.91000 128.808
58.08000 143.493
58.25000 132.678
58.42000 136.885
58.59000 138.761
58.76000 129.233
58.93000 133.868
59.10000 136.681
59.27000 132.140
59.44000 132.541
59.61000 129.236
59.78000 127.969
59.95000 137.209
60.12000 138.029
60.29000 142.200
60.46000 140.644
60.63000 126.640
60.80000 136.971
60.97000 134.466
61.14000 129.845
61.31000 141.592
61.48000 137.150
61.65000 230.105
61.82000 180.370
61.99000 137.962
62.16000 135.385
62.33000 137.506
62.50000 136.306
62.67000 146.656
62.84000 140.953
63.01000 136.739
63.18000 137.747
63.35000 146.409
63.52000 151.359
63.69000 143.346
63.86000 158.517
64.03000 146.185
64.20000 154.612
64.37000 156.731
64.54000 167.306
64.71000 172.439
64.88000 173.757
65.05000 181.529
65.22000 206.508
65.39000 258.694
65.56000 307.967
65.73000 522.703
65.90000 865.068
66.07000 338.514
66.24000 271.497
66.41000 368.163
66.58000 325.966
66.75000 278.893
66.92000 308.429
67.09000 334.381
67.26000 363.159
67.43000 381.122
67.60000 411.792
67.77000 436.954
67.94000 484.277
68.11000 508.218
68.28000 580.528
68.45000 662.140
68.62000 913.356
68.79000 1626.227
68.96000 9167.938
69.13000 48854.598
69.30000 29745.023
69.47000 7510.729
69.64000 1207.104
69.81000 784.235
69.98000 653.056
70.00000 638.422

File: BTO_Mapping_Theta2Theta_09-17-2025_001_30_-30-000_30-000.xy
20.00000 549.852
20.17000 562.534
20.34000 552.971
20.51000 535.868
20.68000 531.002
20.85000 538.493
21.02000 552.254
21.19000 544.871
21.36000 530.820
21.53000 543.633
21.70000 558.872
21.87000 716.353
22.04000 843.286
22.21000 665.929
22.38000 558.862
22.55000 537.099
22.72000 519.822
22.89000 497.594
23.06000 509.521
23.23000 500.147
23.40000 510.845
23.57000 506.315
23.74000 504.949
23.91000 483.871
24.08000 498.212
24.25000 493.882
24.42000 499.166
24.59000 496.918
24.76000 459.207
24.93000 463.708
25.10000 464.691
25.27000 479.548
25.44000 479.671
25.61000 465.109
25.78000 481.667
25.95000 457.161
26.12000 467.065
26.29000 449.649
26.46000 468.745
26.63000 441.362
26.80000 438.610
26.97000 457.411
27.14000 430.204
27.31000 445.455
27.48000 435.170
27.65000 438.684
27.82000 437.846
27.99000 437.214
28.16000 431.135
28.33000 430.288
28.50000 428.425
28.67000 433.299
28.84000 409.594
29.01000 423.160
29.18000 409.428
29.35000 415.509
29.52000 411.834
29.69000 408.877
29.86000 433.848
30.03000 456.250
30.20000 429.891
30.37000 438.458
30.54000 434.737
30.71000 453.938
30.88000 518.739
31.05000 753.046
31.22000 2482.333
31.39000 4185.865
31.56000 1653.812
31.73000 570.079
31.90000 442.478
32.07000 415.878
32.24000 399.737
32.41000 384.314
32.58000 383.160
32.75000 369.620
32.92000 357.043
33.09000 368.116
33.26000 354.911
33.43000 332.338
33.60000 340.288
33.77000 340.890
33.94000 344.433
34.11000 341.562
34.28000 335.882
34.45000 336.760
34.62000 304.536
34.79000 329.845
34.96000 305.246
35.13000 316.796
35.30000 320.931
35.47000 312.852
35.64000 310.356
35.81000 309.206
35.98000 323.046
36.15000 318.552
36.32000 293.649
36.49000 298.237
36.66000 297.085
36.83000 304.174
37.00000 300.551
37.17000 292.482
37.34000 288.292
37.51000 287.185
37.68000 292.275
37.85000 285.355
38.02000 294.267
38.19000 297.011
38.36000 330.713
38.53000 449.083
38.70000 577.666
38.87000 436.086
39.04000 313.840
39.21000 291.286
39.38000 273.343
39.55000 274.429
39.72000 272.085
39.89000 283.472
40.06000 260.117
40.23000 258.070
40.40000 252.687
40.57000 246.175
40.74000 255.619
40.91000 243.422
41.08000 255.559
41.25000 231.415
41.42000 237.078
41.59000 245.912
41.76000 231.905
41.93000 244.874
42.10000 242.318
42.27000 235.134
42.44000 215.039
42.61000 230.158
42.78000 228.335
42.95000 229.633
43.12000 234.681
43.29000 232.937
43.46000 238.168
43.63000 228.665
43.80000 211.947
43.97000 228.520
44.14000 214.309
44.31000 212.037
44.48000 229.631
44.65000 256.734
44.82000 358.456
44.99000 494.314
45.16000 420.220
45.33000 295.330
45.50000 226.455
45.67000 228.882
45.84000 219.118
46.01000 219.531
46.18000 213.668
46.35000 199.096
46.52000 199.957
46.69000 197.604
46.86000 196.199
47.03000 197.165
47.20000 207.989
47.37000 194.094
47.54000 197.174
47.71000 199.402
47.88000 176.028
48.05000 189.572
48.22000 178.901
48.39000 182.439
48.56000 173.928
48.73000 186.134
48.90000 182.616
49.07000 184.184
49.24000 187.315
49.41000 178.111
49.58000 171.441
49.75000 177.307
49.92000 186.184
50.09000 182.408
50.26000 196.262
50.43000 208.890
50.60000 279.461
50.77000 296.484
50.94000 208.355
51.11000 196.860
51.28000 178.015
51.45000 168.722
51.62000 164.463
51.79000 170.968
51.96000 168.511
52.13000 166.342
52.30000 166.700
52.47000 158.967
52.64000 153.561
52.81000 161.067
52.98000 151.815
53.15000 170.395
53.32000 173.456
53.49000 161.153
53.66000 147.168
53.83000 148.459
54.00000 165.698
54.17000 160.434
54.34000 155.453
54.51000 154.936
54.68000 163.911
54.85000 162.758
55.02000 155.057
55.19000 157.278
55.36000 175.559
55.53000 240.381
55.70000 439.017
55.87000 633.600
56.04000 509.026
56.21000 284.463
56.38000 184.605
56.55000 164.187
56.72000 160.831
56.89000 149.820
57.06000 148.663
57.23000 144.442
57.40000 145.550
57.57000 147.636
57.74000 141.994
57.91000 138.716
58.08000 138.892
58.25000 137.666
58.42000 127.927
58.59000 136.632
58.76000 145.723
58.93000 140.628
59.10000 134.547
59.27000 129.792
59.44000 135.409
59.61000 134.007
59.78000 134.848
59.95000 126.349
60.12000 126.905
60.29000 124.857
60.46000 138.937
60.63000 130.805
60.80000 138.277
60.97000 138.499
61.14000 137.789
61.31000 147.036
61.48000 147.364
61.65000 326.418
61.82000 238.011
61.99000 154.759
62.16000 138.738
62.33000 141.363
62.50000 138.008
62.67000 155.882
62.84000 153.173
63.01000 149.711
63.18000 152.374
63.35000 153.403
63.52000 160.846
63.69000 144.930
63.86000 155.900
64.03000 153.009
64.20000 170.037
64.37000 175.303
64.54000 162.992
64.71000 188.154
64.88000 192.611
65.05000 216.866
65.22000 277.924
65.39000 390.248
65.56000 492.317
65.73000 853.422
65.90000 1390.467
66.07000 440.576
66.24000 355.182
66.41000 517.025
66.58000 381.131
66.75000 359.889
66.92000 364.255
67.09000 388.688
67.26000 429.218
67.43000 452.274
67.60000 492.780
67.77000 528.924
67.94000 584.255
68.11000 638.610
68.28000 701.716
68.45000 874.688
68.62000 1297.694
68.79000 2623.291
68.96000 21304.920
69.13000 88690.102
69.30000 53357.859
69.47000 13100.298
69.64000 1671.816
69.81000 1032.729
69.98000 814.743
70.00000 814.943

File: BTO_Mapping_Theta2Theta_09-17-2025_001_31_-15-000_30-000.xy
20.00000 551.644
20.17000 548.784
20.34000 577.870
20.51000 551.898
20.68000 552.870
20.85000 569.353
21.02000 550.450
21.19000 550.916
21.36000 527.035
21.53000 562.221
21.70000 565.796
21.87000 659.949
22.04000 824.726
22.21000 686.447
22.38000 550.325
22.55000 503.987
22.72000 527.186
22.89000 514.216
23.06000 496.822
23.23000 497.605
23.40000 488.373
23.57000 498.541
23.74000 497.316
23.91000 489.722
24.08000 484.960
24.25000 490.036
24.42000 482.043
24.59000 485.461
24.76000 483.270
24.93000 477.023
25.10000 473.004
25.27000 461.179
25.44000 466.549
25.61000 461.882
25.78000 464.743
25.95000 472.161
26.12000 462.962
26.29000 448.589
26.46000 430.771
26.63000 457.756
26.80000 442.315
26.97000 440.639
27.14000 432.754
27.31000 451.397
27.48000 438.420
27.65000 443.277
27.82000 417.300
27.99000 421.756
28.16000 425.742
28.33000 445.896
28.50000 408.935
28.67000 423.905
28.84000 419.416
29.01000 416.587
29.18000 405.600
29.35000 395.775
29.52000 404.809
29.69000 404.574
29.86000 423.693
30.03000 467.719
30.20000 443.250
30.37000 421.785
30.54000 442.777
30.71000 447.273
30.88000 497.947
31.05000 679.724
31.22000 2010.807
31.39000 4144.751
31.56000 2102.269
31.73000 619.900
31.90000 443.603
32.07000 408.473
32.24000 401.675
32.41000 393.195
32.58000 360.111
32.75000 367.581
32.92000 349.898
33.09000 353.383
33.26000 345.694
33.43000 356.760
33.60000 358.878
33.77000 350.732
33.94000 340.168
34.11000 321.130
34.28000 336.053
34.45000 339.224
34.62000 311.893
34.79000 316.542
34.96000 332.164
35.13000 313.393
35.30000 316.524
35.47000 296.259
35.64000 294.548
35.81000 304.013
35.98000 310.966
36.15000 310.392
36.32000 306.291
36.49000 312.182
36.66000 302.630
36.83000 293.932
37.00000 295.530
37.17000 287.970
37.34000 288.006
37.51000 289.146
37.68000 276.293
37.85000 301.049
38.02000 288.773
38.19000 296.261
38.36000 317.995
38.53000 452.900
38.70000 729.697
38.87000 578.605
39.04000 326.276
39.21000 286.316
39.38000 275.748
39.55000 261.400
39.72000 267.775
39.89000 262.316
40.06000 277.281
40.23000 257.105
40.40000 261.627
40.57000 253.636
40.74000 253.524
40.91000 236.988
41.08000 251.378
41.25000 239.851
41.42000 252.875
41.59000 241.132
41.76000 247.767
41.93000 228.607
42.10000 222.047
42.27000 221.980
42.44000 234.662
42.61000 224.640
42.78000 228.461
42.95000 224.380
43.12000 223.564
43.29000 216.974
43.46000 219.003
43.63000 233.364
43.80000 222.850
43.97000 231.136
44.14000 220.431
44.31000 223.483
44.48000 229.634
44.65000 241.909
44.82000 307.201
44.99000 439.760
45.16000 439.160
45.33000 309.915
45.50000 244.900
45.67000 224.147
45.84000 213.515
46.01000 206.503
46.18000 201.621
46.35000 205.767
46.52000 199.402
46.69000 201.928
46.86000 197.648
47.03000 204.053
47.20000 186.988
47.37000 186.522
47.54000 193.824
47.71000 176.601
47.88000 189.872
48.05000 184.857
48.22000 190.473
48.39000 182.788
48.56000 192.959
48.73000 198.788
48.90000 193.232
49.07000 160.844
49.24000 182.308
49.41000 182.543
49.58000 178.451
49.75000 181.563
49.92000 175.194
50.09000 185.918
50.26000 189.113
50.43000 202.254
50.60000 263.231
50.77000 268.019
50.94000 219.018
51.11000 171.139
51.28000 168.500
51.45000 164.920
51.62000 175.640
51.79000 174.490
51.96000 164.255
52.13000 162.624
52.30000 159.231
52.47000 162.086
52.64000 158.457
52.81000 156.559
52.98000 155.462
53.15000 154.492
53.32000 161.456
53.49000 145.739
53.66000 160.242
53.83000 156.112
54.00000 161.488
54.17000 158.858
54.34000 151.195
54.51000 153.284
54.68000 163.025
54.85000 158.228
55.02000 170.930
55.19000 162.055
55.36000 183.725
55.53000 192.785
55.70000 317.734
55.87000 592.271
56.04000 607.348
56.21000 350.551
56.38000 196.326
56.55000 161.864
56.72000 154.860
56.89000 143.801
57.06000 155.477
57.23000 142.934
57.40000 140.398
57.57000 154.421
57.74000 140.330
57.91000 138.522
58.08000 142.955
58.25000 136.564
58.42000 132.826
58.59000 132.852
58.76000 117.657
58.93000 137.844
59.10000 130.147
59.27000 134.624
59.44000 130.816
59.61000 145.482
59.78000 126.504
59.95000 137.819
60.12000 127.402
60.29000 133.221
60.46000 133.946
60.63000 139.054
60.80000 126.272
60.97000 129.335
61.14000 137.402
61.31000 131.761
61.48000 145.930
61.65000 318.905
61.82000 209.864
61.99000 130.244
62.16000 148.990
62.33000 147.393
62.50000 140.862
62.67000 143.659
62.84000 148.977
63.01000 151.649
63.18000 157.005
63.35000 147.787
63.52000 147.612
63.69000 146.195
63.86000 160.303
64.03000 166.112
64.20000 160.842
64.37000 170.276
64.54000 162.344
64.71000 165.760
64.88000 194.104
65.05000 208.692
65.22000 259.792
65.39000 340.086
65.56000 484.010
65.73000 839.190
65.90000 1316.555
66.07000 408.568
66.24000 346.388
66.41000 501.272
66.58000 373.290
66.75000 343.741
66.92000 357.839
67.09000 371.746
67.26000 410.401
67.43000 445.653
67.60000 478.315
67.77000 535.081
67.94000 551.724
68.11000 619.129
68.28000 678.926
68.45000 807.844
68.62000 1243.243
68.79000 2384.383
68.96000 18956.295
69.13000 79770.359
69.30000 47214.121
69.47000 11019.775
69.64000 1553.198
69.81000 981.928
69.98000 755.117
70.00000 757.846