Folder: Master-Thesis/XRD/XRD/25-09-2025/XY Data (part 3)

File: BTO_Mapping_Theta2Theta_25-09-2025_001_17_12-361_38-042.xy
20.00000 567.049
20.17000 552.274
20.34000 566.642
20.51000 557.008
20.68000 551.647
20.85000 531.073
21.02000 542.562
21.19000 528.441
21.36000 543.325
21.53000 540.546
21.70000 557.445
21.87000 565.141
22.04000 591.967
22.21000 597.120
22.38000 600.923
22.55000 531.735
22.72000 531.688
22.89000 504.186
23.06000 524.266
23.23000 528.403
23.40000 492.362
23.57000 494.354
23.74000 518.126
23.91000 487.813
24.08000 462.555
24.25000 476.470
24.42000 494.607
24.59000 476.664
24.76000 469.357
24.93000 479.987
25.10000 488.258
25.27000 477.854
25.44000 465.444
25.61000 459.740
25.78000 461.087
25.95000 466.470
26.12000 446.095
26.29000 432.302
26.46000 435.498
26.63000 435.669
26.80000 437.718
26.97000 442.819
27.14000 431.040
27.31000 426.952
27.48000 422.520
27.65000 417.864
27.82000 422.889
27.99000 439.166
28.16000 411.563
28.33000 409.859
28.50000 420.846
28.67000 412.641
28.84000 409.800
29.01000 423.522
29.18000 384.380
29.35000 423.062
29.52000 407.426
29.69000 401.259
29.86000 402.358
30.03000 415.765
30.20000 409.071
30.37000 393.570
30.54000 412.962
30.71000 436.697
30.88000 450.062
31.05000 527.292
31.22000 885.808
31.39000 1294.671
31.56000 1019.969
31.73000 606.829
31.90000 455.973
32.07000 392.265
32.24000 383.343
32.41000 404.462
32.58000 391.823
32.75000 359.086
32.92000 373.624
33.09000 351.511
33.26000 353.252
33.43000 334.835
33.60000 339.281
33.77000 310.001
33.94000 341.339
34.11000 344.420
34.28000 323.219
34.45000 311.946
34.62000 303.041
34.79000 314.841
34.96000 313.019
35.13000 304.819
35.30000 316.383
35.47000 289.298
35.64000 297.022
35.81000 294.454
35.98000 294.472
36.15000 308.891
36.32000 278.790
36.49000 303.241
36.66000 280.924
36.83000 275.553
37.00000 298.128
37.17000 290.518
37.34000 291.144
37.51000 282.810
37.68000 283.939
37.85000 292.716
38.02000 286.945
38.19000 285.143
38.36000 301.678
38.53000 424.134
38.70000 618.829
38.87000 487.480
39.04000 317.093
39.21000 286.901
39.38000 262.352
39.55000 260.304
39.72000 270.116
39.89000 265.590
40.06000 264.144
40.23000 251.847
40.40000 257.349
40.57000 243.508
40.74000 248.693
40.91000 232.713
41.08000 239.977
41.25000 246.998
41.42000 239.598
41.59000 230.814
41.76000 225.046
41.93000 238.747
42.10000 231.113
42.27000 234.175
42.44000 234.206
42.61000 231.538
42.78000 221.262
42.95000 218.893
43.12000 226.553
43.29000 225.242
43.46000 226.123
43.63000 217.349
43.80000 225.953
43.97000 205.851
44.14000 221.258
44.31000 224.865
44.48000 211.227
44.65000 230.038
44.82000 220.958
44.99000 238.092
45.16000 262.643
45.33000 245.816
45.50000 257.643
45.67000 232.173
45.84000 225.248
46.01000 210.652
46.18000 202.663
46.35000 196.147
46.52000 192.148
46.69000 198.614
46.86000 184.884
47.03000 197.971
47.20000 190.379
47.37000 191.170
47.54000 183.788
47.71000 183.151
47.88000 185.911
48.05000 189.396
48.22000 193.043
48.39000 176.387
48.56000 189.461
48.73000 184.673
48.90000 176.717
49.07000 184.097
49.24000 173.910
49.41000 180.035
49.58000 170.882
49.75000 177.528
49.92000 169.607
50.09000 176.398
50.26000 175.914
50.43000 182.711
50.60000 176.735
50.77000 172.900
50.94000 183.826
51.11000 171.184
51.28000 174.540
51.45000 178.363
51.62000 159.287
51.79000 163.108
51.96000 165.584
52.13000 155.530
52.30000 164.370
52.47000 150.137
52.64000 159.674
52.81000 148.814
52.98000 156.044
53.15000 155.184
53.32000 145.499
53.49000 160.075
53.66000 165.153
53.83000 153.651
54.00000 154.661
54.17000 151.400
54.34000 150.850
54.51000 146.490
54.68000 158.494
54.85000 149.791
55.02000 153.553
55.19000 160.855
55.36000 162.251
55.53000 179.000
55.70000 226.726
55.87000 310.659
56.04000 309.600
56.21000 235.613
56.38000 183.723
56.55000 155.462
56.72000 154.902
56.89000 147.866
57.06000 145.312
57.23000 146.894
57.40000 145.400
57.57000 141.674
57.74000 143.126
57.91000 134.527
58.08000 144.474
58.25000 142.058
58.42000 139.667
58.59000 136.846
58.76000 136.303
58.93000 149.561
59.10000 133.948
59.27000 128.880
59.44000 129.673
59.61000 134.167
59.78000 130.415
59.95000 136.320
60.12000 136.215
60.29000 125.410
60.46000 131.050
60.63000 131.533
60.80000 131.205
60.97000 136.773
61.14000 132.488
61.31000 139.557
61.48000 141.993
61.65000 248.332
61.82000 199.834
61.99000 147.271
62.16000 134.316
62.33000 146.661
62.50000 140.820
62.67000 131.813
62.84000 145.254
63.01000 149.862
63.18000 153.725
63.35000 145.221
63.52000 159.913
63.69000 153.271
63.86000 162.546
64.03000 162.268
64.20000 160.618
64.37000 176.783
64.54000 168.958
64.71000 181.774
64.88000 174.097
65.05000 188.561
65.22000 222.904
65.39000 249.213
65.56000 278.508
65.73000 564.078
65.90000 1056.982
66.07000 380.216
66.24000 320.013
66.41000 444.806
66.58000 358.671
66.75000 320.078
66.92000 348.422
67.09000 362.726
67.26000 382.746
67.43000 417.445
67.60000 448.447
67.77000 474.028
67.94000 536.640
68.11000 585.624
68.28000 632.261
68.45000 729.964
68.62000 1022.906
68.79000 1840.048
68.96000 10544.065
69.13000 54066.750
69.30000 32299.752
69.47000 8169.542
69.64000 1244.398
69.81000 849.956
69.98000 673.802
70.00000 663.312

File: BTO_Mapping_Theta2Theta_25-09-2025_001_18_-1-045_9-945.xy
20.00000 555.833
20.17000 555.074
20.34000 568.391
20.51000 533.596
20.68000 544.464
20.85000 541.715
21.02000 532.858
21.19000 537.458
21.36000 568.449
21.53000 532.284
21.70000 535.901
21.87000 549.438
22.04000 601.801
22.21000 641.199
22.38000 577.647
22.55000 574.296
22.72000 530.881
22.89000 518.465
23.06000 514.197
23.23000 497.561
23.40000 504.195
23.57000 488.336
23.74000 501.408
23.91000 506.019
24.08000 490.298
24.25000 482.598
24.42000 469.209
24.59000 482.300
24.76000 480.097
24.93000 472.888
25.10000 482.072
25.27000 460.677
25.44000 453.065
25.61000 434.562
25.78000 455.405
25.95000 468.684
26.12000 455.802
26.29000 454.336
26.46000 455.389
26.63000 425.208
26.80000 445.607
26.97000 444.319
27.14000 441.966
27.31000 443.085
27.48000 441.926
27.65000 418.840
27.82000 419.916
27.99000 424.806
28.16000 416.363
28.33000 413.933
28.50000 413.239
28.67000 412.490
28.84000 402.726
29.01000 418.482
29.18000 412.530
29.35000 409.011
29.52000 387.815
29.69000 392.491
29.86000 418.979
30.03000 405.652
30.20000 407.639
30.37000 400.297
30.54000 401.032
30.71000 420.961
30.88000 434.822
31.05000 526.871
31.22000 945.540
31.39000 1463.911
31.56000 1041.266
31.73000 563.279
31.90000 431.067
32.07000 383.784
32.24000 379.643
32.41000 371.725
32.58000 372.393
32.75000 360.882
32.92000 359.799
33.09000 347.088
33.26000 348.098
33.43000 327.873
33.60000 322.525
33.77000 330.822
33.94000 335.768
34.11000 337.775
34.28000 327.344
34.45000 331.700
34.62000 324.736
34.79000 310.985
34.96000 302.917
35.13000 309.084
35.30000 309.914
35.47000 297.957
35.64000 300.146
35.81000 287.643
35.98000 306.185
36.15000 293.661
36.32000 296.208
36.49000 285.852
36.66000 292.790
36.83000 290.824
37.00000 303.603
37.17000 296.214
37.34000 275.287
37.51000 275.361
37.68000 298.268
37.85000 281.681
38.02000 291.266
38.19000 276.852
38.36000 331.495
38.53000 487.171
38.70000 818.481
38.87000 626.505
39.04000 344.849
39.21000 278.168
39.38000 284.413
39.55000 255.353
39.72000 238.765
39.89000 268.027
40.06000 277.969
40.23000 250.897
40.40000 253.910
40.57000 243.801
40.74000 244.985
40.91000 251.251
41.08000 246.548
41.25000 237.184
41.42000 249.109
41.59000 234.553
41.76000 227.578
41.93000 229.921
42.10000 224.435
42.27000 236.667
42.44000 233.023
42.61000 229.812
42.78000 227.922
42.95000 235.499
43.12000 211.999
43.29000 215.805
43.46000 228.949
43.63000 233.837
43.80000 212.814
43.97000 210.851
44.14000 218.020
44.31000 207.127
44.48000 220.988
44.65000 233.752
44.82000 242.365
44.99000 250.255
45.16000 252.466
45.33000 262.612
45.50000 262.623
45.67000 243.099
45.84000 241.118
46.01000 206.707
46.18000 214.430
46.35000 201.946
46.52000 211.942
46.69000 211.025
46.86000 196.014
47.03000 186.453
47.20000 187.782
47.37000 185.741
47.54000 180.135
47.71000 180.946
47.88000 179.637
48.05000 175.694
48.22000 180.653
48.39000 181.060
48.56000 175.679
48.73000 177.095
48.90000 177.624
49.07000 180.515
49.24000 167.177
49.41000 172.719
49.58000 173.503
49.75000 168.162
49.92000 184.214
50.09000 181.440
50.26000 169.985
50.43000 188.595
50.60000 189.308
50.77000 210.806
50.94000 187.574
51.11000 175.791
51.28000 172.740
51.45000 164.656
51.62000 158.772
51.79000 166.675
51.96000 159.695
52.13000 158.808
52.30000 161.186
52.47000 157.466
52.64000 169.888
52.81000 154.071
52.98000 146.958
53.15000 148.392
53.32000 160.459
53.49000 152.452
53.66000 147.834
53.83000 166.014
54.00000 163.021
54.17000 138.344
54.34000 154.837
54.51000 159.917
54.68000 162.636
54.85000 150.627
55.02000 149.234
55.19000 154.463
55.36000 172.533
55.53000 185.148
55.70000 284.140
55.87000 433.134
56.04000 465.447
56.21000 321.689
56.38000 220.858
56.55000 167.503
56.72000 153.389
56.89000 146.389
57.06000 149.287
57.23000 143.768
57.40000 145.605
57.57000 136.199
57.74000 134.060
57.91000 146.321
58.08000 144.030
58.25000 124.494
58.42000 140.686
58.59000 135.817
58.76000 135.181
58.93000 125.780
59.10000 134.456
59.27000 132.316
59.44000 122.129
59.61000 132.913
59.78000 136.221
59.95000 135.316
60.12000 136.097
60.29000 133.359
60.46000 129.128
60.63000 130.219
60.80000 129.735
60.97000 134.931
61.14000 131.690
61.31000 138.272
61.48000 140.339
61.65000 259.366
61.82000 196.255
61.99000 142.193
62.16000 128.758
62.33000 132.173
62.50000 132.478
62.67000 146.272
62.84000 146.704
63.01000 142.223
63.18000 151.283
63.35000 157.168
63.52000 146.512
63.69000 144.031
63.86000 150.911
64.03000 156.272
64.20000 155.493
64.37000 168.766
64.54000 160.551
64.71000 172.484
64.88000 181.251
65.05000 187.454
65.22000 215.985
65.39000 248.040
65.56000 295.260
65.73000 598.505
65.90000 1064.519
66.07000 374.489
66.24000 305.395
66.41000 438.985
66.58000 356.082
66.75000 327.542
66.92000 356.300
67.09000 368.658
67.26000 375.695
67.43000 390.705
67.60000 432.423
67.77000 488.130
67.94000 517.611
68.11000 538.639
68.28000 620.723
68.45000 729.082
68.62000 1036.474
68.79000 1932.744
68.96000 12163.573
69.13000 54868.340
69.30000 32144.766
69.47000 7592.082
69.64000 1265.041
69.81000 837.585
69.98000 672.152
70.00000 654.498

File: BTO_Mapping_Theta2Theta_25-09-2025_001_21_-4-181_39-781.xy
20.00000 565.287
20.17000 570.189
20.34000 546.539
20.51000 558.940
20.68000 544.642
20.85000 550.973
21.02000 528.562
21.19000 547.256
21.36000 534.760
21.53000 533.217
21.70000 538.276
21.87000 570.125
22.04000 602.392
22.21000 628.335
22.38000 576.305
22.55000 526.012
22.72000 512.448
22.89000 520.101
23.06000 482.219
23.23000 499.366
23.40000 504.508
23.57000 507.911
23.74000 488.297
23.91000 480.095
24.08000 488.307
24.25000 482.280
24.42000 475.553
24.59000 486.062
24.76000 463.231
24.93000 467.952
25.10000 468.843
25.27000 471.670
25.44000 455.567
25.61000 457.496
25.78000 450.238
25.95000 434.563
26.12000 444.566
26.29000 435.943
26.46000 466.315
26.63000 444.488
26.80000 433.421
26.97000 437.638
27.14000 430.624
27.31000 438.852
27.48000 430.873
27.65000 411.760
27.82000 422.613
27.99000 404.216
28.16000 416.418
28.33000 421.284
28.50000 426.485
28.67000 405.603
28.84000 408.510
29.01000 409.017
29.18000 401.625
29.35000 397.086
29.52000 406.551
29.69000 398.908
29.86000 409.578
30.03000 406.348
30.20000 395.373
30.37000 399.598
30.54000 400.064
30.71000 404.827
30.88000 437.841
31.05000 502.831
31.22000 806.415
31.39000 1289.316
31.56000 989.404
31.73000 581.843
31.90000 457.345
32.07000 416.477
32.24000 379.948
32.41000 368.811
32.58000 364.187
32.75000 373.519
32.92000 366.852
33.09000 362.486
33.26000 341.418
33.43000 341.910
33.60000 338.776
33.77000 326.894
33.94000 342.201
34.11000 317.726
34.28000 327.251
34.45000 322.039
34.62000 313.577
34.79000 311.172
34.96000 316.161
35.13000 305.757
35.30000 308.860
35.47000 300.308
35.64000 319.641
35.81000 289.983
35.98000 298.797
36.15000 304.637
36.32000 297.958
36.49000 300.689
36.66000 307.328
36.83000 297.737
37.00000 291.662
37.17000 287.751
37.34000 285.212
37.51000 291.385
37.68000 287.238
37.85000 283.209
38.02000 271.614
38.19000 290.083
38.36000 293.603
38.53000 448.474
38.70000 749.388
38.87000 582.295
39.04000 347.565
39.21000 303.318
39.38000 268.350
39.55000 251.485
39.72000 250.110
39.89000 262.211
40.06000 269.067
40.23000 258.764
40.40000 264.200
40.57000 244.221
40.74000 240.293
40.91000 239.745
41.08000 244.202
41.25000 240.838
41.42000 230.625
41.59000 239.760
41.76000 225.863
41.93000 224.368
42.10000 232.857
42.27000 222.875
42.44000 234.122
42.61000 232.704
42.78000 222.324
42.95000 225.101
43.12000 228.534
43.29000 218.707
43.46000 216.706
43.63000 224.665
43.80000 210.958
43.97000 218.426
44.14000 222.315
44.31000 217.705
44.48000 212.197
44.65000 220.294
44.82000 227.799
44.99000 262.723
45.16000 269.960
45.33000 245.567
45.50000 251.772
45.67000 231.909
45.84000 236.003
46.01000 216.401
46.18000 215.419
46.35000 206.245
46.52000 202.954
46.69000 182.936
46.86000 195.838
47.03000 192.930
47.20000 196.121
47.37000 197.477
47.54000 190.346
47.71000 176.282
47.88000 183.819
48.05000 176.097
48.22000 173.480
48.39000 188.116
48.56000 186.767
48.73000 186.919
48.90000 186.681
49.07000 173.752
49.24000 183.898
49.41000 169.548
49.58000 170.766
49.75000 183.873
49.92000 162.869
50.09000 163.315
50.26000 176.208
50.43000 182.594
50.60000 187.555
50.77000 188.693
50.94000 176.108
51.11000 190.508
51.28000 162.422
51.45000 159.856
51.62000 156.419
51.79000 162.974
51.96000 168.336
52.13000 157.881
52.30000 161.377
52.47000 148.577
52.64000 143.620
52.81000 158.835
52.98000 148.449
53.15000 163.384
53.32000 162.075
53.49000 160.969
53.66000 161.835
53.83000 154.206
54.00000 155.877
54.17000 159.984
54.34000 152.215
54.51000 160.386
54.68000 148.544
54.85000 154.173
55.02000 149.664
55.19000 157.044
55.36000 151.903
55.53000 179.686
55.70000 230.961
55.87000 355.922
56.04000 419.675
56.21000 306.586
56.38000 202.321
56.55000 165.542
56.72000 164.025
56.89000 144.863
57.06000 155.669
57.23000 149.842
57.40000 140.232
57.57000 138.514
57.74000 140.757
57.91000 138.889
58.08000 137.212
58.25000 134.008
58.42000 133.346
58.59000 144.380
58.76000 143.973
58.93000 147.980
59.10000 134.346
59.27000 129.401
59.44000 137.529
59.61000 134.723
59.78000 136.027
59.95000 128.683
60.12000 139.821
60.29000 134.675
60.46000 127.625
60.63000 143.053
60.80000 135.161
60.97000 137.534
61.14000 132.872
61.31000 138.143
61.48000 150.254
61.65000 258.471
61.82000 189.889
61.99000 148.099
62.16000 139.387
62.33000 138.637
62.50000 145.335
62.67000 135.261
62.84000 141.612
63.01000 140.064
63.18000 149.311
63.35000 151.816
63.52000 148.775
63.69000 153.200
63.86000 160.177
64.03000 159.825
64.20000 158.712
64.37000 166.024
64.54000 173.193
64.71000 177.186
64.88000 193.111
65.05000 188.622
65.22000 207.715
65.39000 246.841
65.56000 284.056
65.73000 582.890
65.90000 1053.263
66.07000 363.200
66.24000 320.246
66.41000 447.223
66.58000 351.291
66.75000 320.730
66.92000 346.253
67.09000 372.161
67.26000 385.918
67.43000 419.170
67.60000 433.659
67.77000 480.597
67.94000 511.491
68.11000 557.967
68.28000 635.462
68.45000 736.852
68.62000 1048.321
68.79000 1980.507
68.96000 11778.384
69.13000 54446.914
69.30000 32026.742
69.47000 7744.384
69.64000 1261.372
69.81000 797.587
69.98000 658.322
70.00000 654.396

File: BTO_Mapping_Theta2Theta_25-09-2025_001_23_-10-000_17-321.xy
20.00000 555.989
20.17000 560.649
20.34000 545.550
20.51000 567.357
20.68000 573.543
20.85000 542.839
21.02000 557.731
21.19000 547.979
21.36000 542.054
21.53000 528.071
21.70000 541.994
21.87000 600.931
22.04000 648.417
22.21000 647.324
22.38000 599.626
22.55000 551.623
22.72000 506.684
22.89000 525.110
23.06000 512.799
23.23000 499.063
23.40000 511.747
23.57000 501.268
23.74000 481.778
23.91000 481.585
24.08000 491.963
24.25000 502.970
24.42000 483.878
24.59000 479.614
24.76000 471.005
24.93000 471.600
25.10000 468.233
25.27000 461.354
25.44000 455.811
25.61000 462.858
25.78000 453.081
25.95000 453.784
26.12000 453.500
26.29000 416.468
26.46000 443.837
26.63000 446.813
26.80000 427.240
26.97000 448.336
27.14000 431.919
27.31000 429.090
27.48000 420.727
27.65000 431.828
27.82000 434.642
27.99000 410.130
28.16000 423.566
28.33000 421.744
28.50000 414.299
28.67000 414.004
28.84000 413.629
29.01000 401.205
29.18000 413.386
29.35000 419.052
29.52000 390.330
29.69000 393.893
29.86000 409.823
30.03000 419.852
30.20000 412.132
30.37000 409.696
30.54000 404.331
30.71000 411.387
30.88000 417.267
31.05000 526.765
31.22000 1056.679
31.39000 1593.598
31.56000 1128.243
31.73000 597.120
31.90000 450.200
32.07000 387.573
32.24000 391.634
32.41000 371.244
32.58000 379.488
32.75000 366.373
32.92000 376.749
33.09000 357.025
33.26000 336.157
33.43000 338.247
33.60000 330.177
33.77000 336.178
33.94000 339.567
34.11000 302.315
34.28000 316.007
34.45000 310.450
34.62000 312.465
34.79000 323.503
34.96000 323.370
35.13000 318.882
35.30000 297.031
35.47000 313.410
35.64000 289.793
35.81000 288.756
35.98000 302.018
36.15000 305.572
36.32000 291.719
36.49000 282.855
36.66000 292.929
36.83000 302.937
37.00000 302.754
37.17000 297.390
37.34000 267.713
37.51000 274.708
37.68000 287.134
37.85000 287.597
38.02000 281.966
38.19000 290.465
38.36000 322.776
38.53000 499.933
38.70000 786.597
38.87000 622.902
39.04000 361.542
39.21000 285.156
39.38000 284.568
39.55000 269.151
39.72000 262.407
39.89000 245.269
40.06000 240.733
40.23000 253.650
40.40000 235.406
40.57000 252.879
40.74000 244.386
40.91000 256.469
41.08000 243.326
41.25000 236.363
41.42000 239.562
41.59000 246.884
41.76000 217.254
41.93000 236.961
42.10000 238.377
42.27000 232.172
42.44000 226.826
42.61000 231.185
42.78000 224.723
42.95000 229.681
43.12000 226.698
43.29000 218.381
43.46000 201.337
43.63000 222.785
43.80000 223.941
43.97000 215.315
44.14000 216.236
44.31000 209.477
44.48000 225.343
44.65000 231.361
44.82000 249.414
44.99000 278.446
45.16000 281.642
45.33000 289.435
45.50000 264.720
45.67000 247.930
45.84000 233.105
46.01000 218.579
46.18000 201.272
46.35000 200.571
46.52000 194.447
46.69000 201.702
46.86000 191.640
47.03000 205.527
47.20000 195.956
47.37000 184.753
47.54000 180.676
47.71000 190.360
47.88000 189.758
48.05000 182.536
48.22000 178.473
48.39000 176.805
48.56000 175.294
48.73000 179.692
48.90000 182.690
49.07000 181.457
49.24000 175.584
49.41000 197.865
49.58000 177.992
49.75000 171.189
49.92000 170.024
50.09000 175.105
50.26000 185.636
50.43000 181.427
50.60000 196.033
50.77000 201.647
50.94000 184.894
51.11000 182.651
51.28000 181.881
51.45000 169.078
51.62000 165.548
51.79000 161.164
51.96000 161.608
52.13000 151.818
52.30000 145.177
52.47000 152.739
52.64000 150.339
52.81000 156.701
52.98000 155.486
53.15000 159.943
53.32000 149.276
53.49000 161.484
53.66000 160.809
53.83000 151.625
54.00000 161.576
54.17000 140.270
54.34000 144.447
54.51000 141.134
54.68000 151.883
54.85000 146.986
55.02000 160.393
55.19000 152.932
55.36000 157.770
55.53000 204.384
55.70000 286.921
55.87000 415.890
56.04000 428.647
56.21000 312.386
56.38000 200.162
56.55000 167.375
56.72000 139.454
56.89000 149.897
57.06000 143.553
57.23000 151.995
57.40000 146.702
57.57000 134.608
57.74000 145.660
57.91000 138.289
58.08000 139.941
58.25000 135.400
58.42000 145.157
58.59000 138.368
58.76000 139.591
58.93000 131.482
59.10000 129.554
59.27000 123.729
59.44000 127.940
59.61000 131.693
59.78000 134.546
59.95000 130.599
60.12000 139.742
60.29000 141.511
60.46000 131.225
60.63000 134.954
60.80000 132.413
60.97000 131.987
61.14000 128.128
61.31000 133.612
61.48000 153.275
61.65000 262.590
61.82000 186.523
61.99000 149.287
62.16000 140.060
62.33000 134.873
62.50000 136.092
62.67000 148.479
62.84000 145.491
63.01000 152.935
63.18000 142.483
63.35000 154.420
63.52000 152.037
63.69000 144.670
63.86000 159.470
64.03000 157.823
64.20000 171.327
64.37000 172.603
64.54000 164.444
64.71000 173.231
64.88000 169.196
65.05000 200.135
65.22000 221.967
65.39000 256.390
65.56000 298.493
65.73000 615.209
65.90000 1102.053
66.07000 404.398
66.24000 324.167
66.41000 434.327
66.58000 337.648
66.75000 320.446
66.92000 339.479
67.09000 357.507
67.26000 388.893
67.43000 419.042
67.60000 448.548
67.77000 472.171
67.94000 518.509
68.11000 573.656
68.28000 654.243
68.45000 758.674
68.62000 1055.204
68.79000 1993.199
68.96000 13040.913
69.13000 56263.070
69.30000 32735.680
69.47000 7708.396
69.64000 1263.581
69.81000 821.333
69.98000 661.686
70.00000 659.035

File: BTO_Mapping_Theta2Theta_25-09-2025_001_25_-20-000_34-641.xy
20.00000 576.813
20.17000 577.596
20.34000 563.388
20.51000 558.572
20.68000 564.392
20.85000 563.232
21.02000 533.293
21.19000 544.365
21.36000 552.652
21.53000 538.862
21.70000 557.926
21.87000 584.665
22.04000 613.543
22.21000 656.417
22.38000 605.598
22.55000 549.831
22.72000 512.548
22.89000 534.128
23.06000 507.406
23.23000 502.879
23.40000 500.684
23.57000 486.761
23.74000 484.311
23.91000 492.143
24.08000 495.316
24.25000 478.893
24.42000 486.731
24.59000 471.937
24.76000 471.003
24.93000 482.985
25.10000 454.922
25.27000 457.358
25.44000 458.174
25.61000 444.450
25.78000 460.217
25.95000 455.039
26.12000 438.462
26.29000 428.355
26.46000 434.646
26.63000 449.465
26.80000 430.563
26.97000 434.963
27.14000 438.893
27.31000 425.213
27.48000 410.873
27.65000 420.043
27.82000 424.699
27.99000 420.292
28.16000 413.944
28.33000 402.268
28.50000 417.456
28.67000 414.080
28.84000 422.567
29.01000 389.788
29.18000 398.753
29.35000 409.935
29.52000 415.623
29.69000 399.962
29.86000 393.863
30.03000 390.318
30.20000 413.532
30.37000 418.456
30.54000 383.607
30.71000 430.848
30.88000 426.387
31.05000 531.138
31.22000 902.871
31.39000 1445.080
31.56000 1055.358
31.73000 564.047
31.90000 449.712
32.07000 397.924
32.24000 381.024
32.41000 384.557
32.58000 401.000
32.75000 347.823
32.92000 385.177
33.09000 346.907
33.26000 349.634
33.43000 342.438
33.60000 346.573
33.77000 310.687
33.94000 318.619
34.11000 318.846
34.28000 340.890
34.45000 305.635
34.62000 318.785
34.79000 311.199
34.96000 312.690
35.13000 314.422
35.30000 312.818
35.47000 312.222
35.64000 303.403
35.81000 311.314
35.98000 305.807
36.15000 289.420
36.32000 311.645
36.49000 298.116
36.66000 283.717
36.83000 297.444
37.00000 296.223
37.17000 304.960
37.34000 294.280
37.51000 287.668
37.68000 292.378
37.85000 289.442
38.02000 286.087
38.19000 287.794
38.36000 312.442
38.53000 472.040
38.70000 770.037
38.87000 625.347
39.04000 360.955
39.21000 289.398
39.38000 281.182
39.55000 272.697
39.72000 255.578
39.89000 257.590
40.06000 259.858
40.23000 237.413
40.40000 249.235
40.57000 234.532
40.74000 246.438
40.91000 232.189
41.08000 245.678
41.25000 238.987
41.42000 232.754
41.59000 250.062
41.76000 228.854
41.93000 239.432
42.10000 222.365
42.27000 225.403
42.44000 233.520
42.61000 223.289
42.78000 227.297
42.95000 218.314
43.12000 216.576
43.29000 215.087
43.46000 222.296
43.63000 218.762
43.80000 216.645
43.97000 210.885
44.14000 227.293
44.31000 209.185
44.48000 218.316
44.65000 224.433
44.82000 237.007
44.99000 285.101
45.16000 294.508
45.33000 280.696
45.50000 263.037
45.67000 234.638
45.84000 239.631
46.01000 225.506
46.18000 218.185
46.35000 206.157
46.52000 197.168
46.69000 198.972
46.86000 212.102
47.03000 192.868
47.20000 188.023
47.37000 180.781
47.54000 187.657
47.71000 189.848
47.88000 178.963
48.05000 175.374
48.22000 179.824
48.39000 180.721
48.56000 186.780
48.73000 179.530
48.90000 181.603
49.07000 175.539
49.24000 180.360
49.41000 174.097
49.58000 176.917
49.75000 163.860
49.92000 171.956
50.09000 171.098
50.26000 181.456
50.43000 186.157
50.60000 193.826
50.77000 215.627
50.94000 192.733
51.11000 175.755
51.28000 167.667
51.45000 170.358
51.62000 173.077
51.79000 163.666
51.96000 164.021
52.13000 161.652
52.30000 161.890
52.47000 157.270
52.64000 151.935
52.81000 158.117
52.98000 157.708
53.15000 154.329
53.32000 155.298
53.49000 164.204
53.66000 160.544
53.83000 155.727
54.00000 140.430
54.17000 149.368
54.34000 140.586
54.51000 158.801
54.68000 145.964
54.85000 155.242
55.02000 157.687
55.19000 151.829
55.36000 161.515
55.53000 189.396
55.70000 288.254
55.87000 390.347
56.04000 427.321
56.21000 322.775
56.38000 211.962
56.55000 172.923
56.72000 157.784
56.89000 149.198
57.06000 140.376
57.23000 133.289
57.40000 161.691
57.57000 150.788
57.74000 134.521
57.91000 139.176
58.08000 138.577
58.25000 141.666
58.42000 131.558
58.59000 133.009
58.76000 127.870
58.93000 132.120
59.10000 148.451
59.27000 138.422
59.44000 127.004
59.61000 137.242
59.78000 136.581
59.95000 135.419
60.12000 115.842
60.29000 128.957
60.46000 121.250
60.63000 132.100
60.80000 132.949
60.97000 141.454
61.14000 125.783
61.31000 140.360
61.48000 151.283
61.65000 268.237
61.82000 191.706
61.99000 134.641
62.16000 128.039
62.33000 147.944
62.50000 142.552
62.67000 134.426
62.84000 138.554
63.01000 131.987
63.18000 138.226
63.35000 156.730
63.52000 149.233
63.69000 149.590
63.86000 153.049
64.03000 154.444
64.20000 151.844
64.37000 162.275
64.54000 173.870
64.71000 171.066
64.88000 190.267
65.05000 180.309
65.22000 199.775
65.39000 233.906
65.56000 295.527
65.73000 616.727
65.90000 1091.858
66.07000 390.905
66.24000 307.288
66.41000 455.321
66.58000 348.046
66.75000 345.752
66.92000 345.714
67.09000 377.606
67.26000 371.180
67.43000 420.255
67.60000 454.177
67.77000 479.595
67.94000 506.315
68.11000 592.591
68.28000 645.363
68.45000 757.655
68.62000 1069.088
68.79000 2001.807
68.96000 13070.537
69.13000 56897.332
69.30000 33169.566
69.47000 7936.750
69.64000 1295.415
69.81000 836.846
69.98000 659.628
70.00000 659.164