Folder: Master-Thesis/XRD/XRD/25-09-2025/XY Data (part 5)

File: BTO_Mapping_Theta2Theta_25-09-2025_001_42_-5-000_-8-660.xy
20.00000 566.304
20.17000 554.282
20.34000 557.798
20.51000 542.926
20.68000 561.863
20.85000 557.826
21.02000 549.200
21.19000 528.601
21.36000 534.783
21.53000 524.659
21.70000 543.751
21.87000 602.432
22.04000 663.131
22.21000 651.241
22.38000 596.607
22.55000 562.106
22.72000 529.922
22.89000 499.562
23.06000 508.999
23.23000 499.199
23.40000 488.231
23.57000 495.359
23.74000 490.620
23.91000 481.963
24.08000 491.828
24.25000 483.855
24.42000 494.698
24.59000 467.798
24.76000 474.825
24.93000 458.383
25.10000 467.992
25.27000 478.854
25.44000 457.464
25.61000 467.011
25.78000 459.697
25.95000 475.061
26.12000 448.486
26.29000 445.293
26.46000 448.923
26.63000 437.673
26.80000 446.621
26.97000 437.953
27.14000 451.346
27.31000 420.862
27.48000 425.486
27.65000 415.452
27.82000 445.739
27.99000 425.788
28.16000 416.277
28.33000 405.506
28.50000 415.335
28.67000 421.017
28.84000 411.555
29.01000 430.407
29.18000 405.503
29.35000 374.119
29.52000 396.496
29.69000 405.645
29.86000 417.867
30.03000 428.556
30.20000 419.606
30.37000 409.259
30.54000 414.514
30.71000 432.932
30.88000 456.620
31.05000 615.194
31.22000 1294.390
31.39000 1928.498
31.56000 1306.034
31.73000 636.868
31.90000 464.169
32.07000 396.033
32.24000 394.950
32.41000 375.566
32.58000 373.785
32.75000 349.693
32.92000 385.370
33.09000 345.110
33.26000 345.334
33.43000 342.793
33.60000 328.044
33.77000 327.949
33.94000 337.637
34.11000 306.535
34.28000 309.575
34.45000 335.169
34.62000 314.945
34.79000 310.253
34.96000 317.698
35.13000 317.518
35.30000 293.712
35.47000 294.882
35.64000 298.884
35.81000 314.962
35.98000 303.979
36.15000 286.679
36.32000 301.120
36.49000 286.663
36.66000 291.441
36.83000 295.953
37.00000 278.088
37.17000 293.514
37.34000 278.605
37.51000 289.487
37.68000 284.028
37.85000 279.358
38.02000 293.212
38.19000 290.633
38.36000 352.952
38.53000 544.108
38.70000 721.298
38.87000 578.781
39.04000 333.151
39.21000 279.347
39.38000 266.789
39.55000 258.867
39.72000 249.785
39.89000 239.172
40.06000 239.691
40.23000 257.141
40.40000 255.473
40.57000 257.865
40.74000 240.923
40.91000 252.497
41.08000 249.380
41.25000 245.726
41.42000 242.782
41.59000 224.178
41.76000 245.014
41.93000 228.135
42.10000 234.544
42.27000 220.098
42.44000 223.491
42.61000 223.239
42.78000 222.564
42.95000 233.257
43.12000 233.064
43.29000 227.102
43.46000 222.489
43.63000 224.326
43.80000 219.677
43.97000 219.297
44.14000 216.460
44.31000 219.344
44.48000 219.546
44.65000 237.106
44.82000 252.281
44.99000 291.756
45.16000 313.896
45.33000 271.833
45.50000 267.306
45.67000 242.705
45.84000 236.789
46.01000 234.308
46.18000 215.258
46.35000 197.213
46.52000 195.383
46.69000 196.121
46.86000 203.740
47.03000 196.502
47.20000 195.514
47.37000 191.121
47.54000 180.826
47.71000 186.889
47.88000 194.195
48.05000 176.206
48.22000 186.903
48.39000 180.313
48.56000 181.553
48.73000 170.376
48.90000 177.762
49.07000 174.744
49.24000 168.649
49.41000 172.594
49.58000 178.631
49.75000 179.247
49.92000 171.079
50.09000 177.457
50.26000 172.060
50.43000 201.241
50.60000 226.578
50.77000 214.712
50.94000 197.155
51.11000 176.464
51.28000 187.131
51.45000 173.357
51.62000 173.504
51.79000 170.036
51.96000 161.831
52.13000 162.981
52.30000 172.118
52.47000 155.366
52.64000 155.587
52.81000 149.617
52.98000 148.110
53.15000 154.117
53.32000 151.526
53.49000 149.601
53.66000 150.682
53.83000 151.711
54.00000 150.946
54.17000 155.671
54.34000 148.003
54.51000 149.482
54.68000 139.558
54.85000 152.788
55.02000 151.114
55.19000 160.882
55.36000 179.178
55.53000 192.177
55.70000 298.928
55.87000 440.234
56.04000 393.486
56.21000 286.644
56.38000 195.537
56.55000 171.125
56.72000 154.948
56.89000 155.872
57.06000 142.206
57.23000 144.402
57.40000 150.808
57.57000 129.112
57.74000 133.578
57.91000 137.726
58.08000 134.202
58.25000 135.924
58.42000 134.598
58.59000 137.176
58.76000 140.477
58.93000 137.176
59.10000 128.496
59.27000 124.228
59.44000 132.300
59.61000 130.372
59.78000 139.104
59.95000 133.045
60.12000 135.019
60.29000 135.744
60.46000 131.499
60.63000 138.707
60.80000 139.596
60.97000 131.334
61.14000 133.124
61.31000 131.229
61.48000 145.665
61.65000 262.207
61.82000 202.088
61.99000 133.011
62.16000 134.610
62.33000 147.956
62.50000 145.249
62.67000 137.410
62.84000 153.208
63.01000 146.090
63.18000 149.215
63.35000 143.359
63.52000 148.967
63.69000 152.685
63.86000 161.021
64.03000 159.767
64.20000 162.745
64.37000 159.034
64.54000 172.169
64.71000 180.174
64.88000 184.432
65.05000 209.677
65.22000 225.852
65.39000 269.227
65.56000 309.075
65.73000 660.977
65.90000 1137.787
66.07000 398.913
66.24000 325.947
66.41000 469.677
66.58000 357.120
66.75000 329.439
66.92000 337.858
67.09000 356.648
67.26000 394.036
67.43000 415.348
67.60000 434.614
67.77000 479.738
67.94000 519.847
68.11000 579.172
68.28000 662.244
68.45000 731.620
68.62000 1057.472
68.79000 2018.537
68.96000 13125.327
69.13000 58445.715
69.30000 34214.801
69.47000 8107.620
69.64000 1277.159
69.81000 847.533
69.98000 709.277
70.00000 692.976

File: BTO_Mapping_Theta2Theta_25-09-2025_001_44_-15-000_-25-981.xy
20.00000 562.177
20.17000 572.697
20.34000 569.358
20.51000 557.058
20.68000 544.447
20.85000 541.722
21.02000 544.610
21.19000 547.003
21.36000 539.797
21.53000 519.260
21.70000 591.384
21.87000 721.190
22.04000 836.522
22.21000 700.215
22.38000 590.863
22.55000 548.903
22.72000 505.395
22.89000 527.711
23.06000 494.420
23.23000 504.979
23.40000 510.410
23.57000 488.147
23.74000 499.940
23.91000 485.466
24.08000 488.260
24.25000 485.041
24.42000 493.334
24.59000 457.929
24.76000 478.962
24.93000 454.643
25.10000 474.062
25.27000 455.344
25.44000 465.824
25.61000 444.472
25.78000 454.977
25.95000 460.706
26.12000 439.251
26.29000 445.074
26.46000 456.341
26.63000 452.530
26.80000 444.735
26.97000 424.269
27.14000 432.638
27.31000 434.894
27.48000 447.209
27.65000 428.548
27.82000 405.638
27.99000 422.585
28.16000 416.184
28.33000 427.450
28.50000 410.329
28.67000 419.944
28.84000 406.312
29.01000 420.253
29.18000 404.187
29.35000 424.993
29.52000 410.867
29.69000 401.622
29.86000 410.497
30.03000 421.449
30.20000 418.578
30.37000 413.425
30.54000 419.017
30.71000 431.102
30.88000 497.635
31.05000 761.845
31.22000 1741.355
31.39000 2407.843
31.56000 1467.974
31.73000 759.018
31.90000 484.027
32.07000 408.929
32.24000 388.509
32.41000 360.345
32.58000 386.706
32.75000 369.784
32.92000 399.306
33.09000 370.429
33.26000 343.467
33.43000 345.409
33.60000 331.682
33.77000 327.683
33.94000 330.062
34.11000 329.692
34.28000 330.531
34.45000 326.305
34.62000 321.793
34.79000 323.073
34.96000 320.918
35.13000 304.038
35.30000 311.780
35.47000 320.450
35.64000 305.284
35.81000 293.503
35.98000 298.282
36.15000 301.985
36.32000 301.789
36.49000 299.629
36.66000 296.059
36.83000 303.903
37.00000 300.242
37.17000 294.280
37.34000 276.602
37.51000 280.605
37.68000 289.547
37.85000 267.323
38.02000 292.214
38.19000 290.400
38.36000 331.680
38.53000 452.194
38.70000 526.709
38.87000 438.796
39.04000 325.839
39.21000 268.036
39.38000 266.607
39.55000 268.337
39.72000 267.591
39.89000 269.373
40.06000 266.343
40.23000 254.643
40.40000 263.188
40.57000 253.904
40.74000 243.201
40.91000 252.574
41.08000 244.800
41.25000 232.466
41.42000 237.451
41.59000 229.935
41.76000 238.185
41.93000 240.511
42.10000 230.871
42.27000 239.928
42.44000 224.848
42.61000 233.202
42.78000 227.516
42.95000 228.761
43.12000 226.967
43.29000 232.299
43.46000 219.901
43.63000 213.367
43.80000 230.909
43.97000 235.861
44.14000 217.436
44.31000 230.951
44.48000 242.046
44.65000 285.542
44.82000 367.695
44.99000 423.425
45.16000 387.550
45.33000 329.500
45.50000 279.479
45.67000 265.862
45.84000 239.954
46.01000 206.207
46.18000 204.497
46.35000 200.972
46.52000 210.842
46.69000 191.887
46.86000 202.017
47.03000 196.959
47.20000 186.602
47.37000 181.076
47.54000 187.601
47.71000 181.239
47.88000 190.171
48.05000 181.415
48.22000 190.576
48.39000 175.830
48.56000 189.166
48.73000 180.348
48.90000 183.373
49.07000 178.628
49.24000 171.219
49.41000 181.113
49.58000 177.133
49.75000 182.728
49.92000 172.066
50.09000 177.831
50.26000 187.479
50.43000 209.551
50.60000 232.914
50.77000 225.183
50.94000 205.978
51.11000 179.333
51.28000 176.364
51.45000 175.743
51.62000 167.315
51.79000 164.496
51.96000 161.159
52.13000 168.006
52.30000 160.178
52.47000 173.214
52.64000 166.338
52.81000 153.391
52.98000 155.617
53.15000 163.248
53.32000 157.789
53.49000 158.921
53.66000 144.256
53.83000 157.404
54.00000 166.666
54.17000 145.450
54.34000 139.623
54.51000 160.491
54.68000 148.616
54.85000 146.119
55.02000 150.494
55.19000 160.346
55.36000 178.670
55.53000 221.642
55.70000 320.012
55.87000 400.644
56.04000 346.658
56.21000 252.249
56.38000 202.024
56.55000 168.230
56.72000 155.804
56.89000 142.379
57.06000 160.887
57.23000 140.504
57.40000 142.510
57.57000 159.254
57.74000 140.814
57.91000 142.896
58.08000 142.048
58.25000 149.042
58.42000 136.609
58.59000 140.988
58.76000 136.547
58.93000 140.400
59.10000 133.402
59.27000 123.638
59.44000 139.188
59.61000 130.876
59.78000 134.908
59.95000 130.999
60.12000 126.621
60.29000 129.662
60.46000 130.226
60.63000 136.744
60.80000 128.500
60.97000 128.107
61.14000 130.361
61.31000 139.309
61.48000 139.542
61.65000 310.191
61.82000 206.597
61.99000 142.871
62.16000 139.284
62.33000 135.466
62.50000 141.535
62.67000 147.267
62.84000 150.037
63.01000 152.538
63.18000 146.489
63.35000 144.902
63.52000 147.871
63.69000 143.286
63.86000 152.416
64.03000 152.305
64.20000 159.649
64.37000 167.719
64.54000 178.409
64.71000 177.076
64.88000 192.008
65.05000 199.928
65.22000 266.640
65.39000 313.108
65.56000 348.025
65.73000 777.737
65.90000 1375.298
66.07000 450.208
66.24000 395.628
66.41000 549.311
66.58000 402.068
66.75000 365.698
66.92000 365.136
67.09000 393.972
67.26000 434.420
67.43000 451.071
67.60000 487.705
67.77000 529.283
67.94000 566.939
68.11000 609.127
68.28000 712.375
68.45000 855.021
68.62000 1219.242
68.79000 2461.783
68.96000 17146.619
69.13000 74346.133
69.30000 43543.691
69.47000 10382.405
69.64000 1469.720
69.81000 935.807
69.98000 747.379
70.00000 726.813

File: BTO_Mapping_Theta2Theta_25-09-2025_001_45_-20-000_-34-641.xy
20.00000 555.143
20.17000 545.439
20.34000 547.637
20.51000 576.194
20.68000 549.375
20.85000 543.020
21.02000 572.027
21.19000 542.812
21.36000 519.991
21.53000 541.335
21.70000 582.373
21.87000 730.446
22.04000 890.063
22.21000 717.362
22.38000 601.586
22.55000 540.606
22.72000 513.577
22.89000 500.852
23.06000 499.313
23.23000 502.895
23.40000 507.031
23.57000 503.954
23.74000 489.861
23.91000 489.033
24.08000 498.157
24.25000 468.136
24.42000 478.386
24.59000 477.368
24.76000 484.824
24.93000 462.795
25.10000 478.302
25.27000 465.377
25.44000 464.685
25.61000 465.477
25.78000 459.718
25.95000 470.746
26.12000 462.245
26.29000 458.020
26.46000 439.294
26.63000 455.915
26.80000 451.832
26.97000 433.796
27.14000 419.109
27.31000 439.283
27.48000 436.656
27.65000 423.330
27.82000 445.398
27.99000 422.913
28.16000 426.426
28.33000 406.493
28.50000 431.590
28.67000 415.652
28.84000 408.379
29.01000 418.621
29.18000 436.989
29.35000 411.978
29.52000 415.178
29.69000 398.722
29.86000 430.085
30.03000 435.124
30.20000 451.722
30.37000 438.451
30.54000 419.088
30.71000 462.376
30.88000 496.695
31.05000 804.031
31.22000 2013.303
31.39000 2896.608
31.56000 1692.408
31.73000 786.499
31.90000 505.546
32.07000 431.488
32.24000 381.343
32.41000 398.762
32.58000 376.411
32.75000 349.125
32.92000 405.736
33.09000 358.084
33.26000 342.323
33.43000 351.888
33.60000 339.960
33.77000 335.011
33.94000 334.285
34.11000 336.652
34.28000 325.711
34.45000 327.916
34.62000 313.967
34.79000 319.222
34.96000 301.006
35.13000 304.460
35.30000 309.306
35.47000 300.502
35.64000 307.743
35.81000 286.461
35.98000 308.241
36.15000 306.777
36.32000 296.254
36.49000 297.912
36.66000 290.515
36.83000 291.070
37.00000 301.004
37.17000 301.139
37.34000 290.909
37.51000 286.213
37.68000 280.474
37.85000 286.710
38.02000 282.797
38.19000 307.444
38.36000 334.116
38.53000 451.556
38.70000 495.823
38.87000 401.388
39.04000 312.678
39.21000 268.524
39.38000 273.967
39.55000 266.481
39.72000 260.166
39.89000 258.612
40.06000 264.181
40.23000 242.734
40.40000 254.092
40.57000 248.924
40.74000 254.839
40.91000 252.258
41.08000 245.810
41.25000 247.356
41.42000 239.047
41.59000 248.795
41.76000 239.199
41.93000 219.723
42.10000 232.189
42.27000 227.582
42.44000 224.070
42.61000 220.101
42.78000 225.040
42.95000 237.589
43.12000 235.407
43.29000 221.623
43.46000 222.874
43.63000 220.782
43.80000 222.699
43.97000 223.009
44.14000 223.471
44.31000 227.650
44.48000 245.477
44.65000 311.340
44.82000 408.777
44.99000 466.356
45.16000 384.888
45.33000 320.899
45.50000 271.722
45.67000 241.746
45.84000 235.577
46.01000 212.959
46.18000 207.080
46.35000 210.276
46.52000 201.735
46.69000 196.824
46.86000 186.024
47.03000 188.081
47.20000 199.319
47.37000 190.136
47.54000 183.096
47.71000 185.637
47.88000 176.516
48.05000 187.234
48.22000 185.915
48.39000 179.449
48.56000 175.926
48.73000 191.290
48.90000 176.173
49.07000 173.401
49.24000 178.806
49.41000 179.438
49.58000 170.208
49.75000 183.412
49.92000 170.493
50.09000 175.888
50.26000 190.009
50.43000 223.928
50.60000 234.983
50.77000 229.493
50.94000 191.342
51.11000 192.725
51.28000 186.974
51.45000 172.273
51.62000 165.748
51.79000 158.509
51.96000 159.920
52.13000 164.282
52.30000 164.537
52.47000 150.791
52.64000 164.504
52.81000 158.533
52.98000 153.335
53.15000 155.530
53.32000 145.480
53.49000 154.584
53.66000 152.609
53.83000 157.253
54.00000 139.057
54.17000 162.469
54.34000 146.036
54.51000 155.510
54.68000 153.191
54.85000 147.065
55.02000 159.063
55.19000 168.521
55.36000 179.566
55.53000 221.940
55.70000 315.632
55.87000 392.162
56.04000 335.954
56.21000 256.488
56.38000 204.318
56.55000 170.721
56.72000 156.812
56.89000 146.216
57.06000 145.821
57.23000 155.565
57.40000 136.383
57.57000 133.348
57.74000 135.407
57.91000 133.254
58.08000 149.291
58.25000 140.362
58.42000 138.683
58.59000 138.379
58.76000 140.800
58.93000 135.163
59.10000 134.151
59.27000 135.493
59.44000 138.089
59.61000 136.048
59.78000 132.547
59.95000 142.200
60.12000 127.241
60.29000 131.813
60.46000 127.608
60.63000 133.499
60.80000 132.241
60.97000 138.693
61.14000 129.399
61.31000 134.708
61.48000 152.332
61.65000 338.847
61.82000 246.910
61.99000 145.478
62.16000 146.675
62.33000 146.514
62.50000 146.111
62.67000 142.853
62.84000 146.799
63.01000 157.375
63.18000 142.490
63.35000 151.592
63.52000 144.394
63.69000 144.240
63.86000 168.356
64.03000 165.939
64.20000 163.701
64.37000 177.379
64.54000 185.012
64.71000 188.564
64.88000 204.575
65.05000 243.111
65.22000 270.509
65.39000 320.725
65.56000 401.293
65.73000 859.435
65.90000 1598.912
66.07000 494.957
66.24000 388.673
66.41000 603.634
66.58000 419.116
66.75000 374.643
66.92000 403.984
67.09000 405.947
67.26000 460.725
67.43000 502.662
67.60000 523.522
67.77000 552.343
67.94000 609.061
68.11000 652.288
68.28000 748.457
68.45000 883.329
68.62000 1318.518
68.79000 2646.479
68.96000 19572.814
69.13000 86247.523
69.30000 50792.813
69.47000 12444.464
69.64000 1647.277
69.81000 1030.607
69.98000 797.867
70.00000 777.637

File: BTO_Mapping_Theta2Theta_25-09-2025_001_46_-1-045_-9-945.xy
20.00000 547.725
20.17000 536.090
20.34000 552.761
20.51000 545.460
20.68000 560.576
20.85000 532.568
21.02000 532.083
21.19000 530.511
21.36000 527.468
21.53000 543.887
21.70000 533.946
21.87000 594.875
22.04000 645.338
22.21000 635.258
22.38000 610.600
22.55000 563.900
22.72000 500.919
22.89000 525.023
23.06000 517.507
23.23000 507.355
23.40000 500.019
23.57000 486.389
23.74000 492.051
23.91000 497.852
24.08000 480.237
24.25000 457.092
24.42000 500.168
24.59000 486.875
24.76000 491.460
24.93000 484.094
25.10000 498.662
25.27000 457.471
25.44000 461.954
25.61000 449.549
25.78000 452.920
25.95000 465.503
26.12000 435.569
26.29000 439.267
26.46000 438.495
26.63000 419.595
26.80000 420.173
26.97000 446.046
27.14000 444.344
27.31000 447.319
27.48000 413.699
27.65000 425.296
27.82000 427.285
27.99000 412.707
28.16000 439.630
28.33000 425.357
28.50000 418.263
28.67000 411.470
28.84000 412.080
29.01000 398.473
29.18000 391.914
29.35000 396.605
29.52000 415.220
29.69000 406.180
29.86000 405.571
30.03000 405.667
30.20000 411.563
30.37000 414.898
30.54000 399.669
30.71000 436.916
30.88000 439.743
31.05000 592.216
31.22000 1198.337
31.39000 1747.296
31.56000 1210.942
31.73000 611.458
31.90000 453.443
32.07000 411.085
32.24000 382.962
32.41000 376.012
32.58000 376.196
32.75000 379.690
32.92000 368.510
33.09000 353.651
33.26000 351.213
33.43000 331.285
33.60000 328.776
33.77000 340.859
33.94000 336.105
34.11000 315.427
34.28000 322.800
34.45000 313.940
34.62000 328.987
34.79000 318.091
34.96000 318.589
35.13000 311.231
35.30000 316.964
35.47000 303.174
35.64000 301.618
35.81000 286.289
35.98000 305.355
36.15000 301.904
36.32000 294.252
36.49000 294.409
36.66000 299.550
36.83000 294.657
37.00000 301.915
37.17000 290.472
37.34000 285.172
37.51000 269.417
37.68000 300.247
37.85000 278.778
38.02000 290.528
38.19000 287.402
38.36000 336.372
38.53000 546.510
38.70000 799.888
38.87000 606.366
39.04000 354.684
39.21000 286.790
39.38000 271.174
39.55000 261.212
39.72000 257.272
39.89000 259.001
40.06000 273.462
40.23000 265.491
40.40000 257.051
40.57000 246.056
40.74000 235.814
40.91000 246.002
41.08000 241.377
41.25000 241.163
41.42000 235.782
41.59000 225.106
41.76000 242.286
41.93000 251.313
42.10000 237.158
42.27000 236.071
42.44000 228.701
42.61000 232.642
42.78000 219.046
42.95000 213.659
43.12000 218.171
43.29000 228.394
43.46000 228.043
43.63000 216.464
43.80000 226.630
43.97000 212.908
44.14000 211.190
44.31000 206.981
44.48000 220.759
44.65000 232.714
44.82000 253.615
44.99000 275.302
45.16000 290.322
45.33000 284.187
45.50000 278.027
45.67000 250.913
45.84000 228.674
46.01000 219.457
46.18000 219.944
46.35000 201.590
46.52000 193.920
46.69000 197.808
46.86000 193.966
47.03000 194.753
47.20000 193.056
47.37000 174.878
47.54000 187.531
47.71000 175.156
47.88000 183.952
48.05000 198.699
48.22000 177.957
48.39000 174.514
48.56000 186.638
48.73000 183.680
48.90000 186.042
49.07000 183.196
49.24000 185.303
49.41000 179.108
49.58000 189.661
49.75000 170.674
49.92000 178.189
50.09000 176.451
50.26000 172.215
50.43000 188.833
50.60000 205.544
50.77000 208.696
50.94000 200.954
51.11000 167.594
51.28000 169.593
51.45000 160.379
51.62000 161.554
51.79000 164.233
51.96000 161.155
52.13000 165.090
52.30000 160.378
52.47000 158.329
52.64000 154.169
52.81000 161.179
52.98000 161.339
53.15000 158.660
53.32000 155.062
53.49000 157.128
53.66000 165.449
53.83000 151.198
54.00000 153.670
54.17000 159.072
54.34000 163.867
54.51000 153.971
54.68000 150.386
54.85000 148.664
55.02000 151.918
55.19000 149.776
55.36000 164.135
55.53000 207.942
55.70000 311.609
55.87000 438.272
56.04000 422.022
56.21000 299.173
56.38000 205.667
56.55000 170.438
56.72000 144.416
56.89000 152.610
57.06000 145.357
57.23000 139.904
57.40000 156.875
57.57000 136.348
57.74000 129.872
57.91000 144.098
58.08000 138.114
58.25000 137.639
58.42000 140.715
58.59000 131.345
58.76000 145.301
58.93000 123.803
59.10000 127.089
59.27000 141.576
59.44000 127.042
59.61000 132.817
59.78000 129.128
59.95000 134.905
60.12000 138.579
60.29000 135.955
60.46000 138.585
60.63000 123.226
60.80000 136.466
60.97000 131.798
61.14000 138.991
61.31000 138.606
61.48000 147.282
61.65000 251.935
61.82000 193.429
61.99000 139.880
62.16000 136.703
62.33000 140.498
62.50000 134.429
62.67000 139.660
62.84000 148.959
63.01000 155.595
63.18000 147.905
63.35000 145.381
63.52000 155.716
63.69000 147.654
63.86000 159.174
64.03000 155.408
64.20000 163.480
64.37000 170.733
64.54000 169.198
64.71000 175.939
64.88000 177.414
65.05000 198.188
65.22000 235.400
65.39000 250.247
65.56000 318.913
65.73000 642.410
65.90000 1093.613
66.07000 393.462
66.24000 315.215
66.41000 460.479
66.58000 367.820
66.75000 309.805
66.92000 332.179
67.09000 353.434
67.26000 400.714
67.43000 396.637
67.60000 441.941
67.77000 473.703
67.94000 518.054
68.11000 585.909
68.28000 623.939
68.45000 742.478
68.62000 1036.947
68.79000 1950.839
68.96000 12430.143
69.13000 56373.395
69.30000 33164.051
69.47000 7979.266
69.64000 1298.570
69.81000 868.345
69.98000 671.263
70.00000 663.354

File: BTO_Mapping_Theta2Theta_25-09-2025_001_48_-3-136_-29-836.xy
20.00000 563.651
20.17000 558.916
20.34000 534.796
20.51000 540.334
20.68000 549.162
20.85000 526.915
21.02000 551.129
21.19000 562.200
21.36000 545.751
21.53000 549.833
21.70000 557.424
21.87000 624.636
22.04000 714.103
22.21000 666.725
22.38000 588.530
22.55000 535.214
22.72000 508.632
22.89000 508.474
23.06000 508.133
23.23000 504.974
23.40000 503.507
23.57000 491.692
23.74000 497.463
23.91000 487.840
24.08000 486.974
24.25000 487.980
24.42000 453.796
24.59000 481.270
24.76000 467.149
24.93000 469.915
25.10000 462.885
25.27000 461.401
25.44000 458.656
25.61000 453.943
25.78000 455.611
25.95000 446.200
26.12000 455.600
26.29000 436.703
26.46000 456.475
26.63000 438.543
26.80000 435.213
26.97000 432.503
27.14000 455.963
27.31000 429.600
27.48000 437.074
27.65000 431.619
27.82000 429.774
27.99000 411.131
28.16000 428.623
28.33000 439.711
28.50000 410.786
28.67000 423.320
28.84000 428.469
29.01000 404.491
29.18000 399.684
29.35000 403.958
29.52000 396.446
29.69000 395.242
29.86000 422.412
30.03000 415.888
30.20000 418.536
30.37000 422.134
30.54000 404.813
30.71000 426.691
30.88000 438.156
31.05000 616.495
31.22000 1389.626
31.39000 2073.385
31.56000 1395.785
31.73000 658.634
31.90000 452.785
32.07000 405.437
32.24000 368.335
32.41000 367.759
32.58000 362.027
32.75000 367.635
32.92000 381.020
33.09000 344.664
33.26000 333.664
33.43000 346.038
33.60000 329.447
33.77000 333.306
33.94000 339.758
34.11000 316.608
34.28000 316.960
34.45000 322.633
34.62000 322.856
34.79000 314.284
34.96000 315.918
35.13000 316.758
35.30000 310.505
35.47000 309.432
35.64000 302.503
35.81000 289.699
35.98000 307.080
36.15000 298.300
36.32000 302.864
36.49000 293.316
36.66000 304.639
36.83000 280.392
37.00000 301.478
37.17000 302.874
37.34000 287.060
37.51000 276.296
37.68000 284.632
37.85000 276.318
38.02000 288.856
38.19000 299.963
38.36000 334.203
38.53000 483.752
38.70000 675.797
38.87000 533.522
39.04000 344.719
39.21000 275.852
39.38000 264.548
39.55000 263.116
39.72000 261.426
39.89000 257.580
40.06000 259.086
40.23000 262.786
40.40000 251.986
40.57000 241.625
40.74000 234.891
40.91000 244.206
41.08000 238.173
41.25000 241.174
41.42000 236.971
41.59000 240.802
41.76000 230.155
41.93000 237.722
42.10000 213.650
42.27000 229.986
42.44000 228.074
42.61000 218.015
42.78000 230.949
42.95000 227.181
43.12000 221.144
43.29000 220.551
43.46000 220.406
43.63000 229.745
43.80000 210.367
43.97000 232.684
44.14000 223.611
44.31000 219.311
44.48000 224.978
44.65000 243.085
44.82000 273.542
44.99000 324.433
45.16000 299.080
45.33000 297.792
45.50000 262.856
45.67000 261.055
45.84000 219.667
46.01000 222.875
46.18000 218.354
46.35000 185.284
46.52000 213.906
46.69000 205.371
46.86000 200.232
47.03000 187.710
47.20000 183.437
47.37000 185.887
47.54000 177.936
47.71000 179.064
47.88000 196.813
48.05000 189.924
48.22000 185.123
48.39000 191.052
48.56000 185.474
48.73000 183.748
48.90000 185.959
49.07000 177.397
49.24000 177.341
49.41000 178.267
49.58000 176.233
49.75000 176.541
49.92000 166.501
50.09000 178.916
50.26000 173.219
50.43000 190.284
50.60000 224.844
50.77000 223.441
50.94000 190.420
51.11000 186.722
51.28000 169.869
51.45000 165.050
51.62000 174.753
51.79000 166.601
51.96000 172.013
52.13000 146.331
52.30000 156.763
52.47000 168.000
52.64000 137.093
52.81000 162.386
52.98000 167.270
53.15000 149.888
53.32000 153.069
53.49000 159.580
53.66000 153.939
53.83000 155.885
54.00000 141.306
54.17000 156.449
54.34000 163.436
54.51000 151.188
54.68000 150.420
54.85000 151.751
55.02000 148.246
55.19000 152.969
55.36000 162.539
55.53000 191.190
55.70000 310.132
55.87000 428.690
56.04000 385.953
56.21000 272.901
56.38000 209.601
56.55000 175.253
56.72000 160.902
56.89000 150.754
57.06000 146.410
57.23000 149.235
57.40000 149.585
57.57000 142.088
57.74000 141.348
57.91000 137.319
58.08000 142.217
58.25000 142.937
58.42000 126.028
58.59000 140.707
58.76000 134.451
58.93000 139.921
59.10000 122.303
59.27000 137.875
59.44000 129.019
59.61000 138.913
59.78000 128.803
59.95000 126.744
60.12000 129.795
60.29000 120.410
60.46000 128.126
60.63000 132.693
60.80000 128.738
60.97000 138.746
61.14000 138.976
61.31000 139.071
61.48000 142.634
61.65000 279.861
61.82000 200.389
61.99000 147.542
62.16000 141.081
62.33000 138.485
62.50000 141.759
62.67000 145.969
62.84000 137.429
63.01000 147.001
63.18000 152.583
63.35000 152.146
63.52000 150.956
63.69000 147.976
63.86000 152.515
64.03000 151.779
64.20000 157.649
64.37000 161.542
64.54000 160.637
64.71000 183.610
64.88000 181.553
65.05000 188.258
65.22000 232.910
65.39000 257.896
65.56000 316.495
65.73000 646.317
65.90000 1196.959
66.07000 404.664
66.24000 326.855
66.41000 467.153
66.58000 362.948
66.75000 326.325
66.92000 345.546
67.09000 363.463
67.26000 387.135
67.43000 421.881
67.60000 457.491
67.77000 490.535
67.94000 527.832
68.11000 592.143
68.28000 615.319
68.45000 750.315
68.62000 1067.927
68.79000 2041.740
68.96000 13017.757
69.13000 60398.199
69.30000 35623.055
69.47000 8756.959
69.64000 1340.607
69.81000 861.284
69.98000 715.100
70.00000 690.278