Folder: Master-Thesis/XRD/XRD/25-09-2025/XY Data (part 7)

File: BTO_Mapping_Theta2Theta_25-09-2025_001_56_20-074_-22-294.xy
20.00000 570.631
20.17000 540.582
20.34000 530.768
20.51000 565.005
20.68000 544.873
20.85000 542.103
21.02000 535.284
21.19000 532.502
21.36000 541.324
21.53000 545.740
21.70000 547.105
21.87000 566.674
22.04000 610.392
22.21000 611.505
22.38000 587.208
22.55000 538.398
22.72000 536.999
22.89000 512.914
23.06000 513.088
23.23000 488.272
23.40000 501.846
23.57000 499.370
23.74000 498.781
23.91000 477.737
24.08000 482.438
24.25000 475.168
24.42000 502.308
24.59000 480.178
24.76000 480.307
24.93000 479.836
25.10000 481.295
25.27000 471.290
25.44000 464.567
25.61000 457.147
25.78000 475.488
25.95000 456.484
26.12000 444.934
26.29000 436.499
26.46000 458.806
26.63000 444.329
26.80000 442.862
26.97000 431.611
27.14000 439.670
27.31000 418.454
27.48000 417.093
27.65000 440.342
27.82000 421.828
27.99000 429.273
28.16000 426.323
28.33000 409.413
28.50000 429.869
28.67000 412.617
28.84000 405.823
29.01000 403.344
29.18000 378.390
29.35000 405.184
29.52000 404.010
29.69000 384.710
29.86000 403.632
30.03000 414.131
30.20000 410.208
30.37000 413.673
30.54000 402.432
30.71000 425.914
30.88000 419.557
31.05000 505.185
31.22000 817.454
31.39000 1252.946
31.56000 952.831
31.73000 565.342
31.90000 445.860
32.07000 407.685
32.24000 389.573
32.41000 377.801
32.58000 375.677
32.75000 354.125
32.92000 371.124
33.09000 367.192
33.26000 339.664
33.43000 337.615
33.60000 333.958
33.77000 321.619
33.94000 331.457
34.11000 348.118
34.28000 332.091
34.45000 323.945
34.62000 303.900
34.79000 324.659
34.96000 320.069
35.13000 315.422
35.30000 303.484
35.47000 297.695
35.64000 306.167
35.81000 303.511
35.98000 305.864
36.15000 300.160
36.32000 293.756
36.49000 297.018
36.66000 286.585
36.83000 284.827
37.00000 295.658
37.17000 291.178
37.34000 299.818
37.51000 284.445
37.68000 277.824
37.85000 272.277
38.02000 278.836
38.19000 298.810
38.36000 298.468
38.53000 429.937
38.70000 747.576
38.87000 655.417
39.04000 340.510
39.21000 282.473
39.38000 263.814
39.55000 260.823
39.72000 254.980
39.89000 260.904
40.06000 279.145
40.23000 245.419
40.40000 259.358
40.57000 250.202
40.74000 254.313
40.91000 241.579
41.08000 236.490
41.25000 246.695
41.42000 238.249
41.59000 231.364
41.76000 244.580
41.93000 236.037
42.10000 238.673
42.27000 223.192
42.44000 230.461
42.61000 220.412
42.78000 234.545
42.95000 232.595
43.12000 231.495
43.29000 225.424
43.46000 231.462
43.63000 218.909
43.80000 204.768
43.97000 215.604
44.14000 215.163
44.31000 208.909
44.48000 213.537
44.65000 226.902
44.82000 223.620
44.99000 246.208
45.16000 258.190
45.33000 259.250
45.50000 260.779
45.67000 239.242
45.84000 207.649
46.01000 223.565
46.18000 216.324
46.35000 202.400
46.52000 205.369
46.69000 191.401
46.86000 196.560
47.03000 197.861
47.20000 196.084
47.37000 183.663
47.54000 180.332
47.71000 193.104
47.88000 179.019
48.05000 176.570
48.22000 197.109
48.39000 191.274
48.56000 176.934
48.73000 170.539
48.90000 176.421
49.07000 180.667
49.24000 176.377
49.41000 167.055
49.58000 174.825
49.75000 178.169
49.92000 170.077
50.09000 180.336
50.26000 170.439
50.43000 177.304
50.60000 185.630
50.77000 179.972
50.94000 175.587
51.11000 161.473
51.28000 168.288
51.45000 162.589
51.62000 171.618
51.79000 162.916
51.96000 164.311
52.13000 162.715
52.30000 153.360
52.47000 158.310
52.64000 162.900
52.81000 161.645
52.98000 152.432
53.15000 164.987
53.32000 145.327
53.49000 159.141
53.66000 152.756
53.83000 154.194
54.00000 152.768
54.17000 153.782
54.34000 152.818
54.51000 167.708
54.68000 147.357
54.85000 150.880
55.02000 149.429
55.19000 150.250
55.36000 161.377
55.53000 185.077
55.70000 252.043
55.87000 407.727
56.04000 445.216
56.21000 310.915
56.38000 209.651
56.55000 170.050
56.72000 157.387
56.89000 146.986
57.06000 140.810
57.23000 143.502
57.40000 152.134
57.57000 140.376
57.74000 135.646
57.91000 138.877
58.08000 133.776
58.25000 135.259
58.42000 138.944
58.59000 131.010
58.76000 142.592
58.93000 141.063
59.10000 137.945
59.27000 133.264
59.44000 133.474
59.61000 132.255
59.78000 134.631
59.95000 134.681
60.12000 127.548
60.29000 140.154
60.46000 122.324
60.63000 129.787
60.80000 125.187
60.97000 135.506
61.14000 131.304
61.31000 140.693
61.48000 142.568
61.65000 254.125
61.82000 205.759
61.99000 135.219
62.16000 134.562
62.33000 134.342
62.50000 144.348
62.67000 140.170
62.84000 144.154
63.01000 149.146
63.18000 151.821
63.35000 151.993
63.52000 139.203
63.69000 150.006
63.86000 163.407
64.03000 163.734
64.20000 162.212
64.37000 156.764
64.54000 163.281
64.71000 172.261
64.88000 183.753
65.05000 192.465
65.22000 215.052
65.39000 245.995
65.56000 281.152
65.73000 563.155
65.90000 1039.702
66.07000 384.881
66.24000 297.274
66.41000 451.572
66.58000 342.673
66.75000 335.060
66.92000 332.899
67.09000 362.871
67.26000 377.906
67.43000 417.316
67.60000 451.027
67.77000 464.713
67.94000 515.851
68.11000 583.447
68.28000 617.747
68.45000 717.567
68.62000 1007.275
68.79000 1814.484
68.96000 10280.586
69.13000 53288.824
69.30000 32193.010
69.47000 8271.356
69.64000 1230.269
69.81000 812.714
69.98000 674.891
70.00000 664.853

File: BTO_Mapping_Theta2Theta_25-09-2025_001_59_18-271_-8-135.xy
20.00000 543.803
20.17000 580.795
20.34000 518.768
20.51000 561.298
20.68000 535.786
20.85000 563.953
21.02000 537.791
21.19000 555.191
21.36000 552.305
21.53000 566.970
21.70000 555.902
21.87000 592.054
22.04000 598.163
22.21000 620.184
22.38000 588.984
22.55000 544.087
22.72000 510.033
22.89000 513.313
23.06000 514.263
23.23000 500.147
23.40000 489.046
23.57000 512.774
23.74000 475.237
23.91000 495.556
24.08000 489.808
24.25000 487.050
24.42000 471.300
24.59000 482.185
24.76000 471.321
24.93000 476.658
25.10000 487.109
25.27000 467.248
25.44000 483.730
25.61000 471.962
25.78000 441.922
25.95000 437.652
26.12000 455.246
26.29000 464.793
26.46000 459.225
26.63000 441.499
26.80000 446.096
26.97000 441.692
27.14000 434.421
27.31000 445.045
27.48000 434.136
27.65000 423.531
27.82000 425.070
27.99000 402.452
28.16000 407.845
28.33000 435.241
28.50000 416.366
28.67000 422.223
28.84000 401.583
29.01000 400.206
29.18000 418.116
29.35000 381.710
29.52000 396.886
29.69000 401.634
29.86000 403.011
30.03000 421.798
30.20000 389.215
30.37000 404.239
30.54000 412.738
30.71000 409.414
30.88000 425.199
31.05000 498.054
31.22000 806.818
31.39000 1272.410
31.56000 962.760
31.73000 573.284
31.90000 444.144
32.07000 401.924
32.24000 396.162
32.41000 402.818
32.58000 371.651
32.75000 365.161
32.92000 368.966
33.09000 350.310
33.26000 339.720
33.43000 320.735
33.60000 316.127
33.77000 332.357
33.94000 326.132
34.11000 314.425
34.28000 317.871
34.45000 304.832
34.62000 318.082
34.79000 310.440
34.96000 312.811
35.13000 313.577
35.30000 322.971
35.47000 311.643
35.64000 301.567
35.81000 315.745
35.98000 301.253
36.15000 304.709
36.32000 311.608
36.49000 297.755
36.66000 294.809
36.83000 278.634
37.00000 290.863
37.17000 271.388
37.34000 279.593
37.51000 286.455
37.68000 284.959
37.85000 285.850
38.02000 280.118
38.19000 299.074
38.36000 321.312
38.53000 465.002
38.70000 767.099
38.87000 608.077
39.04000 329.529
39.21000 280.004
39.38000 273.310
39.55000 264.537
39.72000 265.324
39.89000 267.168
40.06000 250.594
40.23000 252.690
40.40000 238.867
40.57000 256.818
40.74000 245.737
40.91000 246.624
41.08000 255.619
41.25000 247.348
41.42000 246.963
41.59000 239.053
41.76000 219.679
41.93000 220.841
42.10000 228.403
42.27000 231.546
42.44000 231.484
42.61000 225.973
42.78000 222.671
42.95000 238.357
43.12000 230.333
43.29000 212.174
43.46000 227.016
43.63000 225.232
43.80000 211.904
43.97000 215.645
44.14000 218.210
44.31000 219.828
44.48000 222.408
44.65000 233.949
44.82000 217.014
44.99000 249.301
45.16000 252.225
45.33000 257.764
45.50000 253.041
45.67000 245.330
45.84000 221.430
46.01000 211.764
46.18000 219.716
46.35000 200.214
46.52000 199.148
46.69000 188.358
46.86000 199.518
47.03000 195.150
47.20000 181.450
47.37000 181.617
47.54000 190.795
47.71000 188.594
47.88000 175.287
48.05000 181.401
48.22000 188.658
48.39000 181.717
48.56000 180.915
48.73000 167.372
48.90000 174.282
49.07000 163.699
49.24000 178.697
49.41000 182.373
49.58000 172.666
49.75000 168.297
49.92000 172.046
50.09000 168.173
50.26000 178.349
50.43000 171.590
50.60000 182.112
50.77000 179.324
50.94000 179.433
51.11000 175.632
51.28000 174.431
51.45000 166.880
51.62000 163.349
51.79000 164.821
51.96000 160.402
52.13000 154.670
52.30000 168.861
52.47000 165.179
52.64000 153.556
52.81000 158.259
52.98000 157.155
53.15000 142.239
53.32000 152.505
53.49000 151.810
53.66000 151.926
53.83000 155.490
54.00000 155.057
54.17000 159.363
54.34000 152.409
54.51000 154.175
54.68000 154.534
54.85000 154.440
55.02000 141.751
55.19000 151.918
55.36000 159.231
55.53000 187.475
55.70000 240.171
55.87000 395.803
56.04000 447.034
56.21000 304.091
56.38000 203.706
56.55000 161.320
56.72000 155.305
56.89000 153.681
57.06000 149.757
57.23000 138.021
57.40000 153.310
57.57000 130.177
57.74000 136.614
57.91000 129.672
58.08000 148.441
58.25000 139.503
58.42000 136.682
58.59000 137.804
58.76000 141.867
58.93000 137.166
59.10000 135.236
59.27000 131.889
59.44000 129.236
59.61000 125.542
59.78000 127.160
59.95000 132.744
60.12000 129.726
60.29000 128.354
60.46000 128.608
60.63000 138.541
60.80000 135.620
60.97000 130.423
61.14000 135.140
61.31000 132.105
61.48000 144.154
61.65000 259.017
61.82000 198.697
61.99000 143.889
62.16000 144.199
62.33000 136.631
62.50000 135.622
62.67000 139.849
62.84000 137.005
63.01000 134.560
63.18000 144.351
63.35000 154.650
63.52000 138.270
63.69000 148.018
63.86000 157.007
64.03000 154.357
64.20000 160.940
64.37000 164.275
64.54000 162.283
64.71000 158.368
64.88000 170.543
65.05000 188.926
65.22000 192.298
65.39000 240.345
65.56000 286.878
65.73000 566.557
65.90000 1052.896
66.07000 380.758
66.24000 325.563
66.41000 453.612
66.58000 336.227
66.75000 318.026
66.92000 336.031
67.09000 366.280
67.26000 381.429
67.43000 397.161
67.60000 435.187
67.77000 489.798
67.94000 495.982
68.11000 549.690
68.28000 634.653
68.45000 695.014
68.62000 1015.989
68.79000 1809.299
68.96000 10455.786
69.13000 53158.176
69.30000 32031.203
69.47000 8156.918
69.64000 1268.685
69.81000 844.834
69.98000 638.248
70.00000 639.999

File: BTO_Mapping_Theta2Theta_25-09-2025_001_60_27-406_-12-202.xy
20.00000 563.384
20.17000 569.969
20.34000 561.973
20.51000 543.405
20.68000 551.712
20.85000 539.922
21.02000 539.282
21.19000 548.424
21.36000 539.862
21.53000 538.336
21.70000 555.996
21.87000 566.660
22.04000 604.490
22.21000 613.156
22.38000 595.355
22.55000 531.333
22.72000 505.622
22.89000 528.554
23.06000 488.583
23.23000 500.845
23.40000 501.519
23.57000 488.909
23.74000 500.321
23.91000 494.437
24.08000 490.405
24.25000 498.857
24.42000 484.490
24.59000 491.009
24.76000 477.876
24.93000 483.064
25.10000 461.239
25.27000 468.208
25.44000 461.186
25.61000 474.018
25.78000 454.295
25.95000 463.953
26.12000 469.954
26.29000 464.744
26.46000 452.582
26.63000 452.383
26.80000 444.316
26.97000 431.531
27.14000 439.249
27.31000 425.308
27.48000 426.705
27.65000 445.904
27.82000 420.000
27.99000 427.285
28.16000 413.580
28.33000 412.439
28.50000 413.687
28.67000 395.101
28.84000 402.553
29.01000 428.865
29.18000 417.962
29.35000 432.395
29.52000 418.987
29.69000 403.321
29.86000 416.013
30.03000 410.951
30.20000 420.518
30.37000 399.522
30.54000 385.670
30.71000 431.868
30.88000 423.810
31.05000 528.804
31.22000 860.509
31.39000 1341.664
31.56000 1009.440
31.73000 610.892
31.90000 451.538
32.07000 399.247
32.24000 395.853
32.41000 377.185
32.58000 362.056
32.75000 369.172
32.92000 364.308
33.09000 353.989
33.26000 344.153
33.43000 346.056
33.60000 347.610
33.77000 324.604
33.94000 324.485
34.11000 325.150
34.28000 323.281
34.45000 329.496
34.62000 324.376
34.79000 313.781
34.96000 306.757
35.13000 295.744
35.30000 300.062
35.47000 295.301
35.64000 307.751
35.81000 303.327
35.98000 302.564
36.15000 308.636
36.32000 290.566
36.49000 293.010
36.66000 285.527
36.83000 302.650
37.00000 317.817
37.17000 282.306
37.34000 281.443
37.51000 287.173
37.68000 291.818
37.85000 280.990
38.02000 282.766
38.19000 302.486
38.36000 295.284
38.53000 430.157
38.70000 713.270
38.87000 565.560
39.04000 328.737
39.21000 278.176
39.38000 276.958
39.55000 262.031
39.72000 268.582
39.89000 259.615
40.06000 256.812
40.23000 266.902
40.40000 252.718
40.57000 238.302
40.74000 241.863
40.91000 247.263
41.08000 240.332
41.25000 240.625
41.42000 233.972
41.59000 247.880
41.76000 224.817
41.93000 236.848
42.10000 225.231
42.27000 237.960
42.44000 235.344
42.61000 224.713
42.78000 218.499
42.95000 223.644
43.12000 217.533
43.29000 214.672
43.46000 218.346
43.63000 214.027
43.80000 221.413
43.97000 208.984
44.14000 222.624
44.31000 229.022
44.48000 223.085
44.65000 220.480
44.82000 219.832
44.99000 229.533
45.16000 264.942
45.33000 248.234
45.50000 238.685
45.67000 239.284
45.84000 223.707
46.01000 216.702
46.18000 204.779
46.35000 214.640
46.52000 207.112
46.69000 205.141
46.86000 193.988
47.03000 191.962
47.20000 194.706
47.37000 187.107
47.54000 188.870
47.71000 175.783
47.88000 192.599
48.05000 184.717
48.22000 185.747
48.39000 182.133
48.56000 176.158
48.73000 173.063
48.90000 168.319
49.07000 172.459
49.24000 174.967
49.41000 185.358
49.58000 176.511
49.75000 160.071
49.92000 177.118
50.09000 176.591
50.26000 172.206
50.43000 184.273
50.60000 179.427
50.77000 186.060
50.94000 186.295
51.11000 173.708
51.28000 168.302
51.45000 168.380
51.62000 161.445
51.79000 159.100
51.96000 155.739
52.13000 160.937
52.30000 157.426
52.47000 153.837
52.64000 156.996
52.81000 146.424
52.98000 158.549
53.15000 155.325
53.32000 163.920
53.49000 160.160
53.66000 160.125
53.83000 146.404
54.00000 162.344
54.17000 155.826
54.34000 141.327
54.51000 151.714
54.68000 158.865
54.85000 153.933
55.02000 152.029
55.19000 153.965
55.36000 161.880
55.53000 184.469
55.70000 248.061
55.87000 358.147
56.04000 371.111
56.21000 273.475
56.38000 199.294
56.55000 171.609
56.72000 157.881
56.89000 146.537
57.06000 146.912
57.23000 146.981
57.40000 144.538
57.57000 145.288
57.74000 143.236
57.91000 141.512
58.08000 136.824
58.25000 140.280
58.42000 133.080
58.59000 138.690
58.76000 129.788
58.93000 129.926
59.10000 128.901
59.27000 131.920
59.44000 122.770
59.61000 140.298
59.78000 134.592
59.95000 122.144
60.12000 151.423
60.29000 131.937
60.46000 133.397
60.63000 129.167
60.80000 130.311
60.97000 130.966
61.14000 131.254
61.31000 146.716
61.48000 141.597
61.65000 265.702
61.82000 215.733
61.99000 144.555
62.16000 139.218
62.33000 134.861
62.50000 139.139
62.67000 146.325
62.84000 138.807
63.01000 144.301
63.18000 156.973
63.35000 139.202
63.52000 151.006
63.69000 159.692
63.86000 152.763
64.03000 153.803
64.20000 157.921
64.37000 167.589
64.54000 173.506
64.71000 164.173
64.88000 185.694
65.05000 196.504
65.22000 198.278
65.39000 233.671
65.56000 286.255
65.73000 573.652
65.90000 1059.156
66.07000 391.066
66.24000 310.164
66.41000 441.666
66.58000 372.010
66.75000 328.196
66.92000 348.400
67.09000 362.869
67.26000 383.422
67.43000 421.409
67.60000 443.844
67.77000 456.939
67.94000 519.090
68.11000 577.287
68.28000 640.703
68.45000 707.220
68.62000 1006.749
68.79000 1761.144
68.96000 10038.112
69.13000 53180.449
69.30000 32075.074
69.47000 8324.822
69.64000 1277.894
69.81000 844.549
69.98000 686.643
70.00000 648.358

File: BTO_Mapping_Theta2Theta_25-09-2025_001_61_36-542_-16-269.xy
20.00000 575.711
20.17000 558.769
20.34000 542.760
20.51000 544.490
20.68000 558.717
20.85000 532.237
21.02000 532.377
21.19000 556.437
21.36000 545.798
21.53000 558.031
21.70000 535.361
21.87000 558.327
22.04000 579.247
22.21000 616.521
22.38000 566.969
22.55000 547.387
22.72000 523.675
22.89000 512.785
23.06000 516.317
23.23000 497.749
23.40000 487.939
23.57000 506.851
23.74000 479.673
23.91000 486.678
24.08000 503.263
24.25000 481.098
24.42000 474.128
24.59000 467.472
24.76000 468.265
24.93000 495.365
25.10000 475.293
25.27000 460.083
25.44000 451.186
25.61000 461.011
25.78000 456.247
25.95000 431.511
26.12000 453.614
26.29000 460.262
26.46000 456.541
26.63000 436.871
26.80000 442.024
26.97000 427.904
27.14000 438.282
27.31000 421.980
27.48000 434.379
27.65000 438.734
27.82000 432.047
27.99000 421.717
28.16000 429.571
28.33000 402.927
28.50000 405.557
28.67000 414.457
28.84000 419.712
29.01000 411.007
29.18000 409.126
29.35000 396.552
29.52000 401.945
29.69000 405.824
29.86000 409.757
30.03000 422.838
30.20000 418.768
30.37000 397.599
30.54000 403.836
30.71000 424.806
30.88000 442.193
31.05000 533.655
31.22000 866.569
31.39000 1277.306
31.56000 1010.391
31.73000 600.011
31.90000 460.221
32.07000 410.352
32.24000 405.158
32.41000 386.954
32.58000 369.625
32.75000 362.960
32.92000 361.285
33.09000 361.283
33.26000 345.613
33.43000 358.145
33.60000 353.188
33.77000 332.003
33.94000 325.873
34.11000 321.837
34.28000 319.280
34.45000 329.132
34.62000 317.154
34.79000 316.683
34.96000 312.611
35.13000 320.761
35.30000 305.671
35.47000 311.576
35.64000 278.812
35.81000 312.304
35.98000 303.488
36.15000 288.515
36.32000 274.257
36.49000 310.530
36.66000 286.291
36.83000 293.474
37.00000 286.690
37.17000 268.012
37.34000 283.360
37.51000 272.198
37.68000 273.378
37.85000 284.035
38.02000 283.729
38.19000 292.741
38.36000 313.577
38.53000 446.854
38.70000 618.510
38.87000 469.592
39.04000 312.917
39.21000 286.802
39.38000 270.726
39.55000 266.914
39.72000 271.074
39.89000 249.877
40.06000 257.867
40.23000 247.138
40.40000 263.892
40.57000 251.099
40.74000 247.660
40.91000 260.063
41.08000 239.346
41.25000 256.653
41.42000 233.468
41.59000 250.797
41.76000 231.584
41.93000 229.984
42.10000 226.807
42.27000 219.817
42.44000 246.882
42.61000 235.796
42.78000 222.731
42.95000 223.741
43.12000 208.735
43.29000 234.214
43.46000 242.262
43.63000 216.841
43.80000 224.354
43.97000 217.898
44.14000 216.698
44.31000 223.408
44.48000 224.299
44.65000 226.042
44.82000 234.676
44.99000 242.165
45.16000 233.407
45.33000 260.168
45.50000 248.064
45.67000 226.306
45.84000 221.570
46.01000 198.122
46.18000 199.643
46.35000 220.672
46.52000 207.221
46.69000 205.611
46.86000 197.403
47.03000 190.625
47.20000 185.868
47.37000 171.521
47.54000 186.759
47.71000 187.297
47.88000 189.966
48.05000 170.139
48.22000 187.465
48.39000 179.756
48.56000 177.392
48.73000 183.729
48.90000 165.078
49.07000 180.438
49.24000 171.125
49.41000 190.319
49.58000 180.227
49.75000 171.936
49.92000 183.517
50.09000 180.194
50.26000 182.264
50.43000 175.822
50.60000 175.561
50.77000 187.525
50.94000 176.115
51.11000 182.139
51.28000 160.274
51.45000 170.701
51.62000 149.859
51.79000 161.256
51.96000 163.084
52.13000 168.075
52.30000 164.120
52.47000 143.343
52.64000 160.606
52.81000 155.136
52.98000 155.920
53.15000 167.769
53.32000 158.696
53.49000 156.240
53.66000 151.654
53.83000 161.151
54.00000 155.848
54.17000 147.139
54.34000 151.112
54.51000 147.535
54.68000 145.906
54.85000 158.463
55.02000 157.229
55.19000 150.124
55.36000 165.050
55.53000 185.364
55.70000 239.258
55.87000 296.106
56.04000 302.514
56.21000 248.488
56.38000 185.084
56.55000 172.201
56.72000 151.911
56.89000 143.242
57.06000 144.554
57.23000 134.864
57.40000 141.546
57.57000 139.018
57.74000 153.294
57.91000 140.039
58.08000 142.593
58.25000 132.475
58.42000 136.201
58.59000 140.701
58.76000 136.552
58.93000 136.942
59.10000 142.507
59.27000 134.392
59.44000 139.920
59.61000 130.163
59.78000 133.255
59.95000 135.159
60.12000 127.932
60.29000 127.432
60.46000 135.916
60.63000 119.267
60.80000 138.297
60.97000 138.444
61.14000 132.907
61.31000 140.025
61.48000 149.483
61.65000 258.363
61.82000 196.516
61.99000 154.777
62.16000 139.911
62.33000 140.179
62.50000 137.764
62.67000 145.337
62.84000 145.690
63.01000 149.018
63.18000 148.434
63.35000 151.645
63.52000 156.466
63.69000 160.937
63.86000 156.781
64.03000 161.373
64.20000 165.390
64.37000 174.796
64.54000 171.392
64.71000 174.795
64.88000 186.709
65.05000 192.405
65.22000 210.913
65.39000 242.096
65.56000 296.630
65.73000 561.057
65.90000 1076.899
66.07000 380.717
66.24000 316.647
66.41000 453.749
66.58000 338.716
66.75000 314.210
66.92000 337.906
67.09000 361.320
67.26000 372.988
67.43000 422.088
67.60000 454.521
67.77000 485.975
67.94000 519.577
68.11000 548.079
68.28000 638.428
68.45000 717.757
68.62000 998.124
68.79000 1812.514
68.96000 9600.260
69.13000 53638.672
69.30000 32578.631
69.47000 8750.351
69.64000 1273.752
69.81000 838.099
69.98000 683.802
70.00000 662.793