Folder: Master-Thesis/XRD/XRD/25-09-2025/XY Data (part 4)

File: BTO_Mapping_Theta2Theta_25-09-2025_001_30_-9-781_2-079.xy
20.00000 547.854
20.17000 566.656
20.34000 537.620
20.51000 537.037
20.68000 544.325
20.85000 543.193
21.02000 545.966
21.19000 539.604
21.36000 514.205
21.53000 547.049
21.70000 563.278
21.87000 608.577
22.04000 675.476
22.21000 662.983
22.38000 607.095
22.55000 553.355
22.72000 522.969
22.89000 505.875
23.06000 502.822
23.23000 491.422
23.40000 517.249
23.57000 501.562
23.74000 484.661
23.91000 489.147
24.08000 467.775
24.25000 489.330
24.42000 472.458
24.59000 486.420
24.76000 479.984
24.93000 462.586
25.10000 484.645
25.27000 476.332
25.44000 452.581
25.61000 448.814
25.78000 457.088
25.95000 461.681
26.12000 469.280
26.29000 451.460
26.46000 436.669
26.63000 451.889
26.80000 439.346
26.97000 445.697
27.14000 435.826
27.31000 420.159
27.48000 428.777
27.65000 423.679
27.82000 425.298
27.99000 417.790
28.16000 415.354
28.33000 434.532
28.50000 413.304
28.67000 426.409
28.84000 402.658
29.01000 406.657
29.18000 402.716
29.35000 392.238
29.52000 381.980
29.69000 398.562
29.86000 427.612
30.03000 423.362
30.20000 401.560
30.37000 415.615
30.54000 403.635
30.71000 415.490
30.88000 459.065
31.05000 597.196
31.22000 1360.208
31.39000 1984.332
31.56000 1315.469
31.73000 653.571
31.90000 452.562
32.07000 401.617
32.24000 396.663
32.41000 373.341
32.58000 375.573
32.75000 369.933
32.92000 381.423
33.09000 349.180
33.26000 337.723
33.43000 338.288
33.60000 340.484
33.77000 322.600
33.94000 327.421
34.11000 315.380
34.28000 319.489
34.45000 317.178
34.62000 315.420
34.79000 310.569
34.96000 321.414
35.13000 311.151
35.30000 316.648
35.47000 305.841
35.64000 319.039
35.81000 304.096
35.98000 310.990
36.15000 299.345
36.32000 288.145
36.49000 301.527
36.66000 314.449
36.83000 284.275
37.00000 276.102
37.17000 300.313
37.34000 287.775
37.51000 293.554
37.68000 277.006
37.85000 284.491
38.02000 289.637
38.19000 289.266
38.36000 343.416
38.53000 500.324
38.70000 731.987
38.87000 558.107
39.04000 329.908
39.21000 282.658
39.38000 281.385
39.55000 260.882
39.72000 253.019
39.89000 264.242
40.06000 253.729
40.23000 256.291
40.40000 255.171
40.57000 245.050
40.74000 239.300
40.91000 251.912
41.08000 250.868
41.25000 257.112
41.42000 242.779
41.59000 225.943
41.76000 224.538
41.93000 240.147
42.10000 226.569
42.27000 240.882
42.44000 227.133
42.61000 222.676
42.78000 234.244
42.95000 229.554
43.12000 233.800
43.29000 237.082
43.46000 225.511
43.63000 217.137
43.80000 223.539
43.97000 215.558
44.14000 219.513
44.31000 220.817
44.48000 210.491
44.65000 241.336
44.82000 273.902
44.99000 295.585
45.16000 313.079
45.33000 286.181
45.50000 269.684
45.67000 253.867
45.84000 232.902
46.01000 218.522
46.18000 197.278
46.35000 195.985
46.52000 208.613
46.69000 200.238
46.86000 204.467
47.03000 193.105
47.20000 189.502
47.37000 188.613
47.54000 192.375
47.71000 186.124
47.88000 191.241
48.05000 188.131
48.22000 182.538
48.39000 183.882
48.56000 177.097
48.73000 180.501
48.90000 163.451
49.07000 169.036
49.24000 179.064
49.41000 164.460
49.58000 164.299
49.75000 170.214
49.92000 170.562
50.09000 169.850
50.26000 184.944
50.43000 199.093
50.60000 219.976
50.77000 213.245
50.94000 203.132
51.11000 177.427
51.28000 183.114
51.45000 162.434
51.62000 169.448
51.79000 166.456
51.96000 154.571
52.13000 158.189
52.30000 159.651
52.47000 160.492
52.64000 145.917
52.81000 168.846
52.98000 149.634
53.15000 158.127
53.32000 152.459
53.49000 151.880
53.66000 152.239
53.83000 154.912
54.00000 145.607
54.17000 156.613
54.34000 146.265
54.51000 154.127
54.68000 144.654
54.85000 150.908
55.02000 155.651
55.19000 160.834
55.36000 162.826
55.53000 203.011
55.70000 304.067
55.87000 422.616
56.04000 415.658
56.21000 279.361
56.38000 198.408
56.55000 163.453
56.72000 147.815
56.89000 143.357
57.06000 132.923
57.23000 142.595
57.40000 145.225
57.57000 142.381
57.74000 136.063
57.91000 140.387
58.08000 136.628
58.25000 135.527
58.42000 130.052
58.59000 140.514
58.76000 149.058
58.93000 136.282
59.10000 141.281
59.27000 132.441
59.44000 135.578
59.61000 128.529
59.78000 134.197
59.95000 139.858
60.12000 127.411
60.29000 134.198
60.46000 124.465
60.63000 137.186
60.80000 134.661
60.97000 138.129
61.14000 130.660
61.31000 132.968
61.48000 151.812
61.65000 264.734
61.82000 201.907
61.99000 142.833
62.16000 132.671
62.33000 134.011
62.50000 133.600
62.67000 140.812
62.84000 138.841
63.01000 146.828
63.18000 150.928
63.35000 150.240
63.52000 147.496
63.69000 145.522
63.86000 150.421
64.03000 155.061
64.20000 160.979
64.37000 160.861
64.54000 160.882
64.71000 173.619
64.88000 189.146
65.05000 193.486
65.22000 244.611
65.39000 261.446
65.56000 314.855
65.73000 626.080
65.90000 1153.548
66.07000 388.581
66.24000 344.106
66.41000 474.167
66.58000 342.899
66.75000 333.920
66.92000 339.738
67.09000 357.994
67.26000 389.789
67.43000 418.634
67.60000 464.031
67.77000 471.193
67.94000 551.608
68.11000 577.076
68.28000 638.794
68.45000 754.079
68.62000 1110.416
68.79000 2056.021
68.96000 13869.255
69.13000 59287.012
69.30000 34447.523
69.47000 7976.948
69.64000 1302.727
69.81000 849.255
69.98000 702.988
70.00000 687.252

File: BTO_Mapping_Theta2Theta_25-09-2025_001_31_-19-563_4-158.xy
20.00000 560.279
20.17000 562.292
20.34000 550.460
20.51000 575.278
20.68000 564.435
20.85000 555.882
21.02000 543.331
21.19000 557.938
21.36000 554.037
21.53000 534.942
21.70000 579.724
21.87000 679.746
22.04000 779.216
22.21000 687.411
22.38000 607.524
22.55000 538.701
22.72000 537.332
22.89000 515.774
23.06000 521.341
23.23000 508.414
23.40000 479.399
23.57000 515.831
23.74000 496.333
23.91000 497.016
24.08000 470.534
24.25000 482.471
24.42000 494.181
24.59000 464.992
24.76000 482.012
24.93000 470.521
25.10000 471.406
25.27000 459.457
25.44000 464.175
25.61000 460.423
25.78000 463.300
25.95000 450.684
26.12000 434.977
26.29000 457.143
26.46000 449.730
26.63000 430.432
26.80000 436.094
26.97000 438.518
27.14000 444.148
27.31000 428.792
27.48000 438.857
27.65000 416.769
27.82000 424.330
27.99000 428.323
28.16000 422.977
28.33000 418.685
28.50000 415.055
28.67000 408.535
28.84000 415.245
29.01000 411.987
29.18000 401.455
29.35000 426.840
29.52000 413.184
29.69000 415.843
29.86000 413.564
30.03000 412.444
30.20000 413.434
30.37000 407.889
30.54000 423.919
30.71000 428.726
30.88000 481.342
31.05000 707.955
31.22000 1534.525
31.39000 2207.726
31.56000 1395.072
31.73000 697.899
31.90000 468.786
32.07000 415.368
32.24000 390.874
32.41000 364.100
32.58000 370.307
32.75000 383.979
32.92000 392.371
33.09000 359.336
33.26000 339.121
33.43000 346.229
33.60000 332.296
33.77000 317.981
33.94000 345.964
34.11000 320.444
34.28000 315.619
34.45000 325.866
34.62000 327.586
34.79000 311.585
34.96000 309.445
35.13000 328.668
35.30000 295.468
35.47000 319.051
35.64000 302.646
35.81000 318.725
35.98000 301.811
36.15000 287.531
36.32000 298.372
36.49000 295.893
36.66000 293.923
36.83000 286.981
37.00000 289.282
37.17000 285.669
37.34000 270.137
37.51000 287.693
37.68000 288.622
37.85000 287.997
38.02000 281.839
38.19000 289.195
38.36000 339.602
38.53000 482.708
38.70000 597.258
38.87000 460.206
39.04000 313.207
39.21000 274.641
39.38000 274.880
39.55000 269.424
39.72000 257.644
39.89000 266.289
40.06000 270.153
40.23000 258.811
40.40000 258.506
40.57000 256.567
40.74000 253.310
40.91000 241.652
41.08000 237.244
41.25000 233.141
41.42000 245.068
41.59000 257.234
41.76000 242.601
41.93000 239.613
42.10000 231.198
42.27000 228.110
42.44000 225.613
42.61000 224.417
42.78000 237.510
42.95000 226.831
43.12000 204.261
43.29000 220.626
43.46000 226.257
43.63000 224.264
43.80000 222.213
43.97000 216.075
44.14000 220.361
44.31000 236.759
44.48000 224.905
44.65000 262.400
44.82000 321.315
44.99000 396.997
45.16000 365.602
45.33000 313.673
45.50000 283.796
45.67000 251.402
45.84000 237.108
46.01000 223.454
46.18000 215.974
46.35000 208.253
46.52000 205.056
46.69000 201.407
46.86000 193.551
47.03000 192.406
47.20000 193.911
47.37000 181.364
47.54000 176.088
47.71000 184.056
47.88000 187.103
48.05000 185.935
48.22000 172.748
48.39000 185.482
48.56000 180.982
48.73000 178.764
48.90000 179.452
49.07000 181.943
49.24000 173.414
49.41000 171.378
49.58000 179.449
49.75000 176.099
49.92000 158.492
50.09000 174.508
50.26000 190.153
50.43000 194.690
50.60000 226.152
50.77000 222.368
50.94000 206.309
51.11000 188.955
51.28000 167.496
51.45000 171.509
51.62000 172.894
51.79000 172.991
51.96000 157.247
52.13000 167.498
52.30000 159.803
52.47000 153.030
52.64000 156.700
52.81000 144.811
52.98000 153.377
53.15000 157.005
53.32000 143.470
53.49000 155.436
53.66000 154.050
53.83000 149.998
54.00000 146.722
54.17000 155.478
54.34000 151.964
54.51000 150.272
54.68000 147.817
54.85000 155.773
55.02000 153.794
55.19000 155.760
55.36000 165.858
55.53000 218.616
55.70000 324.428
55.87000 409.864
56.04000 361.758
56.21000 258.108
56.38000 207.763
56.55000 168.686
56.72000 154.988
56.89000 144.551
57.06000 134.715
57.23000 142.815
57.40000 139.590
57.57000 136.624
57.74000 144.008
57.91000 143.000
58.08000 133.522
58.25000 138.022
58.42000 141.821
58.59000 144.498
58.76000 135.177
58.93000 140.668
59.10000 133.811
59.27000 135.772
59.44000 132.972
59.61000 125.253
59.78000 131.049
59.95000 141.193
60.12000 130.727
60.29000 133.302
60.46000 138.972
60.63000 130.845
60.80000 137.533
60.97000 135.176
61.14000 133.339
61.31000 128.979
61.48000 155.593
61.65000 294.479
61.82000 198.232
61.99000 142.091
62.16000 145.529
62.33000 148.580
62.50000 138.274
62.67000 140.384
62.84000 146.590
63.01000 148.578
63.18000 142.714
63.35000 142.800
63.52000 163.135
63.69000 161.283
63.86000 160.448
64.03000 160.605
64.20000 171.084
64.37000 153.488
64.54000 178.777
64.71000 167.669
64.88000 184.352
65.05000 214.805
65.22000 239.511
65.39000 292.584
65.56000 341.296
65.73000 737.451
65.90000 1282.076
66.07000 423.614
66.24000 357.409
66.41000 493.882
66.58000 367.671
66.75000 350.172
66.92000 359.754
67.09000 378.997
67.26000 413.491
67.43000 433.808
67.60000 473.587
67.77000 503.540
67.94000 552.894
68.11000 585.786
68.28000 665.282
68.45000 797.727
68.62000 1180.142
68.79000 2269.012
68.96000 16588.369
69.13000 67243.109
69.30000 38696.160
69.47000 8845.475
69.64000 1401.986
69.81000 877.903
69.98000 683.298
70.00000 685.191

File: BTO_Mapping_Theta2Theta_25-09-2025_001_32_-29-344_6-237.xy
20.00000 555.182
20.17000 544.167
20.34000 560.245
20.51000 547.888
20.68000 547.616
20.85000 536.748
21.02000 564.186
21.19000 561.574
21.36000 533.722
21.53000 543.075
21.70000 582.413
21.87000 737.875
22.04000 836.642
22.21000 718.512
22.38000 603.233
22.55000 545.058
22.72000 545.709
22.89000 521.539
23.06000 484.115
23.23000 486.054
23.40000 511.775
23.57000 503.046
23.74000 489.109
23.91000 497.609
24.08000 490.341
24.25000 498.290
24.42000 484.137
24.59000 471.834
24.76000 489.350
24.93000 478.273
25.10000 463.592
25.27000 456.416
25.44000 481.369
25.61000 439.919
25.78000 482.026
25.95000 446.551
26.12000 469.057
26.29000 449.303
26.46000 451.040
26.63000 451.545
26.80000 437.136
26.97000 443.487
27.14000 436.447
27.31000 434.087
27.48000 430.791
27.65000 412.216
27.82000 441.835
27.99000 425.764
28.16000 428.486
28.33000 423.943
28.50000 425.584
28.67000 410.421
28.84000 403.668
29.01000 397.999
29.18000 404.900
29.35000 395.860
29.52000 389.827
29.69000 401.468
29.86000 415.353
30.03000 442.199
30.20000 410.090
30.37000 408.731
30.54000 412.562
30.71000 430.290
30.88000 475.246
31.05000 781.034
31.22000 1792.559
31.39000 2491.814
31.56000 1523.534
31.73000 751.432
31.90000 485.007
32.07000 415.500
32.24000 394.341
32.41000 380.585
32.58000 386.163
32.75000 354.843
32.92000 397.476
33.09000 368.814
33.26000 352.350
33.43000 353.367
33.60000 348.537
33.77000 352.574
33.94000 339.129
34.11000 320.601
34.28000 332.899
34.45000 326.329
34.62000 327.466
34.79000 306.984
34.96000 303.943
35.13000 295.537
35.30000 309.207
35.47000 308.067
35.64000 306.866
35.81000 295.348
35.98000 299.491
36.15000 301.052
36.32000 291.519
36.49000 293.888
36.66000 292.837
36.83000 302.390
37.00000 302.923
37.17000 302.988
37.34000 290.416
37.51000 298.404
37.68000 282.438
37.85000 297.528
38.02000 283.820
38.19000 286.507
38.36000 320.328
38.53000 436.483
38.70000 526.474
38.87000 419.464
39.04000 317.197
39.21000 277.605
39.38000 268.854
39.55000 268.192
39.72000 272.929
39.89000 248.820
40.06000 247.348
40.23000 247.614
40.40000 230.871
40.57000 237.984
40.74000 249.574
40.91000 226.305
41.08000 237.543
41.25000 241.781
41.42000 237.648
41.59000 229.884
41.76000 234.096
41.93000 240.063
42.10000 249.198
42.27000 229.166
42.44000 229.971
42.61000 234.555
42.78000 232.906
42.95000 231.345
43.12000 227.118
43.29000 224.336
43.46000 226.811
43.63000 238.711
43.80000 223.419
43.97000 223.433
44.14000 222.613
44.31000 224.908
44.48000 245.285
44.65000 304.327
44.82000 390.909
44.99000 435.943
45.16000 370.680
45.33000 313.019
45.50000 288.647
45.67000 251.545
45.84000 247.984
46.01000 225.890
46.18000 213.023
46.35000 199.958
46.52000 193.516
46.69000 200.341
46.86000 203.595
47.03000 181.152
47.20000 190.127
47.37000 192.656
47.54000 193.981
47.71000 198.756
47.88000 192.771
48.05000 180.334
48.22000 192.535
48.39000 176.289
48.56000 179.490
48.73000 174.993
48.90000 169.844
49.07000 184.990
49.24000 188.061
49.41000 181.101
49.58000 168.107
49.75000 169.760
49.92000 179.796
50.09000 170.273
50.26000 183.074
50.43000 208.064
50.60000 225.184
50.77000 221.486
50.94000 212.887
51.11000 171.757
51.28000 170.867
51.45000 175.131
51.62000 169.864
51.79000 164.980
51.96000 157.492
52.13000 163.362
52.30000 152.554
52.47000 153.009
52.64000 175.523
52.81000 162.874
52.98000 159.408
53.15000 150.723
53.32000 162.960
53.49000 161.326
53.66000 164.983
53.83000 157.012
54.00000 159.170
54.17000 155.652
54.34000 161.197
54.51000 156.242
54.68000 147.543
54.85000 156.875
55.02000 152.732
55.19000 164.087
55.36000 175.520
55.53000 221.380
55.70000 320.091
55.87000 398.068
56.04000 349.763
56.21000 255.657
56.38000 190.764
56.55000 178.376
56.72000 150.098
56.89000 153.201
57.06000 141.431
57.23000 132.995
57.40000 142.569
57.57000 132.287
57.74000 141.425
57.91000 143.210
58.08000 145.121
58.25000 141.294
58.42000 144.712
58.59000 133.087
58.76000 140.178
58.93000 135.870
59.10000 149.442
59.27000 140.082
59.44000 128.292
59.61000 121.281
59.78000 130.818
59.95000 131.604
60.12000 139.236
60.29000 126.450
60.46000 132.021
60.63000 126.104
60.80000 131.560
60.97000 136.400
61.14000 136.198
61.31000 139.670
61.48000 152.890
61.65000 336.998
61.82000 217.639
61.99000 139.505
62.16000 154.028
62.33000 138.463
62.50000 141.907
62.67000 142.918
62.84000 149.263
63.01000 149.628
63.18000 143.742
63.35000 141.328
63.52000 159.015
63.69000 145.060
63.86000 146.091
64.03000 158.827
64.20000 165.373
64.37000 171.162
64.54000 167.593
64.71000 190.039
64.88000 201.700
65.05000 221.400
65.22000 258.695
65.39000 315.149
65.56000 363.130
65.73000 854.761
65.90000 1486.846
66.07000 461.920
66.24000 369.127
66.41000 563.442
66.58000 397.873
66.75000 367.592
66.92000 384.105
67.09000 411.067
67.26000 446.664
67.43000 472.175
67.60000 522.129
67.77000 533.879
67.94000 598.274
68.11000 625.135
68.28000 713.902
68.45000 851.973
68.62000 1285.236
68.79000 2607.297
68.96000 20169.105
69.13000 79605.141
69.30000 45692.660
69.47000 10447.671
69.64000 1531.326
69.81000 971.072
69.98000 757.658
70.00000 745.969

File: BTO_Mapping_Theta2Theta_25-09-2025_001_35_-19-563_-4-158.xy
20.00000 542.617
20.17000 570.817
20.34000 557.082
20.51000 548.959
20.68000 537.407
20.85000 556.380
21.02000 545.510
21.19000 545.026
21.36000 560.607
21.53000 562.906
21.70000 592.048
21.87000 701.751
22.04000 802.583
22.21000 698.609
22.38000 574.290
22.55000 543.947
22.72000 531.641
22.89000 531.982
23.06000 496.417
23.23000 510.135
23.40000 491.930
23.57000 483.046
23.74000 488.816
23.91000 488.328
24.08000 485.376
24.25000 499.650
24.42000 502.698
24.59000 499.898
24.76000 488.914
24.93000 474.510
25.10000 462.446
25.27000 466.517
25.44000 458.709
25.61000 457.538
25.78000 461.799
25.95000 470.158
26.12000 464.273
26.29000 449.068
26.46000 454.381
26.63000 441.551
26.80000 441.997
26.97000 449.103
27.14000 456.081
27.31000 439.801
27.48000 432.309
27.65000 419.315
27.82000 418.300
27.99000 412.880
28.16000 427.379
28.33000 422.935
28.50000 410.439
28.67000 422.752
28.84000 400.114
29.01000 402.718
29.18000 413.662
29.35000 400.216
29.52000 400.855
29.69000 422.060
29.86000 424.975
30.03000 438.364
30.20000 420.574
30.37000 432.807
30.54000 400.763
30.71000 437.353
30.88000 482.345
31.05000 742.104
31.22000 1674.931
31.39000 2280.510
31.56000 1394.838
31.73000 704.350
31.90000 468.922
32.07000 410.078
32.24000 395.455
32.41000 388.467
32.58000 365.665
32.75000 365.621
32.92000 389.073
33.09000 364.417
33.26000 368.850
33.43000 339.437
33.60000 335.984
33.77000 318.802
33.94000 323.836
34.11000 318.799
34.28000 323.630
34.45000 317.349
34.62000 314.934
34.79000 314.849
34.96000 310.809
35.13000 317.424
35.30000 312.097
35.47000 301.353
35.64000 289.853
35.81000 301.471
35.98000 299.804
36.15000 281.410
36.32000 300.035
36.49000 282.289
36.66000 296.663
36.83000 287.665
37.00000 283.347
37.17000 277.258
37.34000 282.814
37.51000 280.273
37.68000 284.742
37.85000 279.802
38.02000 282.375
38.19000 288.075
38.36000 341.062
38.53000 470.698
38.70000 546.495
38.87000 432.149
39.04000 308.060
39.21000 276.940
39.38000 262.620
39.55000 268.959
39.72000 284.112
39.89000 251.198
40.06000 247.637
40.23000 246.136
40.40000 250.466
40.57000 259.872
40.74000 253.790
40.91000 249.296
41.08000 246.866
41.25000 242.798
41.42000 234.565
41.59000 239.672
41.76000 246.709
41.93000 230.077
42.10000 231.756
42.27000 226.909
42.44000 230.030
42.61000 215.782
42.78000 228.917
42.95000 242.217
43.12000 212.123
43.29000 229.103
43.46000 216.698
43.63000 218.001
43.80000 221.472
43.97000 214.478
44.14000 228.372
44.31000 226.649
44.48000 237.192
44.65000 264.538
44.82000 350.241
44.99000 401.186
45.16000 367.235
45.33000 317.022
45.50000 269.237
45.67000 254.053
45.84000 223.606
46.01000 214.224
46.18000 205.432
46.35000 204.755
46.52000 200.543
46.69000 203.212
46.86000 190.128
47.03000 194.451
47.20000 185.277
47.37000 196.450
47.54000 184.430
47.71000 189.281
47.88000 193.448
48.05000 185.559
48.22000 182.460
48.39000 184.852
48.56000 174.536
48.73000 179.650
48.90000 166.071
49.07000 178.961
49.24000 180.562
49.41000 167.874
49.58000 184.307
49.75000 171.516
49.92000 180.764
50.09000 182.035
50.26000 188.571
50.43000 211.983
50.60000 224.270
50.77000 215.836
50.94000 185.686
51.11000 176.849
51.28000 186.439
51.45000 162.417
51.62000 158.248
51.79000 157.157
51.96000 163.312
52.13000 161.054
52.30000 156.126
52.47000 163.869
52.64000 161.225
52.81000 149.350
52.98000 163.372
53.15000 154.012
53.32000 165.836
53.49000 154.978
53.66000 157.984
53.83000 164.335
54.00000 152.060
54.17000 148.807
54.34000 143.624
54.51000 151.462
54.68000 157.271
54.85000 147.406
55.02000 158.663
55.19000 152.803
55.36000 177.163
55.53000 217.823
55.70000 317.745
55.87000 386.114
56.04000 357.577
56.21000 265.663
56.38000 197.191
56.55000 167.675
56.72000 156.678
56.89000 138.963
57.06000 143.963
57.23000 134.896
57.40000 142.528
57.57000 133.315
57.74000 139.332
57.91000 144.684
58.08000 143.245
58.25000 135.327
58.42000 145.364
58.59000 144.719
58.76000 129.063
58.93000 127.910
59.10000 126.678
59.27000 134.251
59.44000 128.643
59.61000 132.255
59.78000 130.682
59.95000 135.893
60.12000 134.605
60.29000 133.166
60.46000 138.400
60.63000 131.740
60.80000 132.612
60.97000 146.821
61.14000 127.901
61.31000 131.917
61.48000 153.635
61.65000 307.322
61.82000 202.194
61.99000 152.706
62.16000 142.156
62.33000 145.456
62.50000 134.654
62.67000 141.794
62.84000 141.585
63.01000 140.614
63.18000 144.452
63.35000 147.057
63.52000 164.398
63.69000 160.142
63.86000 151.258
64.03000 160.463
64.20000 159.496
64.37000 155.211
64.54000 173.346
64.71000 180.741
64.88000 174.448
65.05000 210.183
65.22000 256.484
65.39000 302.793
65.56000 353.434
65.73000 761.679
65.90000 1336.399
66.07000 428.364
66.24000 371.443
66.41000 527.163
66.58000 387.323
66.75000 344.915
66.92000 379.052
67.09000 381.413
67.26000 405.574
67.43000 455.546
67.60000 491.075
67.77000 521.109
67.94000 571.001
68.11000 611.294
68.28000 676.586
68.45000 805.095
68.62000 1207.565
68.79000 2370.805
68.96000 17413.096
69.13000 71680.078
69.30000 41218.770
69.47000 9547.729
69.64000 1375.044
69.81000 939.742
69.98000 716.305
70.00000 718.823

File: BTO_Mapping_Theta2Theta_25-09-2025_001_38_-8-090_-5-878.xy
20.00000 553.431
20.17000 549.688
20.34000 551.721
20.51000 544.561
20.68000 552.640
20.85000 546.986
21.02000 544.035
21.19000 552.371
21.36000 549.354
21.53000 559.847
21.70000 556.610
21.87000 596.688
22.04000 692.134
22.21000 678.894
22.38000 619.387
22.55000 548.371
22.72000 522.814
22.89000 513.193
23.06000 510.648
23.23000 514.855
23.40000 494.579
23.57000 493.232
23.74000 482.287
23.91000 486.432
24.08000 483.488
24.25000 487.558
24.42000 476.947
24.59000 469.301
24.76000 481.987
24.93000 486.449
25.10000 477.861
25.27000 464.920
25.44000 477.315
25.61000 458.995
25.78000 453.267
25.95000 446.082
26.12000 445.101
26.29000 447.736
26.46000 451.953
26.63000 443.450
26.80000 433.951
26.97000 422.887
27.14000 441.323
27.31000 436.701
27.48000 420.151
27.65000 428.420
27.82000 422.859
27.99000 434.380
28.16000 440.125
28.33000 424.155
28.50000 415.194
28.67000 425.498
28.84000 393.751
29.01000 418.522
29.18000 408.457
29.35000 378.751
29.52000 390.404
29.69000 404.318
29.86000 417.841
30.03000 433.351
30.20000 434.251
30.37000 412.897
30.54000 409.756
30.71000 422.530
30.88000 435.698
31.05000 642.544
31.22000 1352.431
31.39000 2025.309
31.56000 1353.661
31.73000 642.977
31.90000 470.050
32.07000 415.857
32.24000 393.224
32.41000 383.993
32.58000 356.577
32.75000 367.983
32.92000 370.161
33.09000 354.595
33.26000 343.195
33.43000 337.104
33.60000 335.830
33.77000 327.312
33.94000 326.759
34.11000 330.653
34.28000 325.141
34.45000 313.754
34.62000 334.676
34.79000 332.313
34.96000 311.070
35.13000 293.693
35.30000 298.328
35.47000 304.134
35.64000 293.592
35.81000 282.379
35.98000 303.386
36.15000 304.516
36.32000 305.040
36.49000 285.258
36.66000 286.923
36.83000 296.626
37.00000 269.026
37.17000 287.516
37.34000 295.287
37.51000 282.057
37.68000 282.468
37.85000 285.630
38.02000 289.713
38.19000 285.845
38.36000 341.324
38.53000 499.226
38.70000 700.083
38.87000 523.172
39.04000 338.723
39.21000 290.058
39.38000 273.109
39.55000 259.422
39.72000 259.641
39.89000 250.598
40.06000 252.264
40.23000 250.547
40.40000 248.149
40.57000 248.392
40.74000 246.391
40.91000 231.691
41.08000 248.585
41.25000 249.056
41.42000 233.835
41.59000 238.456
41.76000 243.907
41.93000 226.226
42.10000 231.631
42.27000 235.467
42.44000 232.369
42.61000 237.529
42.78000 223.214
42.95000 225.847
43.12000 230.077
43.29000 216.586
43.46000 231.694
43.63000 222.926
43.80000 222.633
43.97000 218.788
44.14000 213.690
44.31000 217.620
44.48000 239.901
44.65000 224.499
44.82000 261.879
44.99000 299.294
45.16000 312.473
45.33000 288.042
45.50000 268.669
45.67000 263.630
45.84000 220.267
46.01000 223.686
46.18000 193.016
46.35000 211.085
46.52000 209.056
46.69000 191.238
46.86000 203.362
47.03000 199.982
47.20000 188.581
47.37000 188.345
47.54000 182.189
47.71000 177.146
47.88000 169.091
48.05000 179.276
48.22000 171.046
48.39000 182.054
48.56000 183.450
48.73000 178.441
48.90000 177.559
49.07000 189.452
49.24000 169.851
49.41000 182.354
49.58000 166.007
49.75000 179.872
49.92000 177.162
50.09000 187.293
50.26000 177.287
50.43000 187.509
50.60000 220.033
50.77000 211.017
50.94000 189.235
51.11000 183.256
51.28000 169.185
51.45000 172.435
51.62000 165.018
51.79000 164.153
51.96000 157.242
52.13000 151.137
52.30000 165.985
52.47000 175.244
52.64000 144.571
52.81000 166.977
52.98000 165.461
53.15000 155.774
53.32000 153.512
53.49000 157.541
53.66000 149.481
53.83000 158.944
54.00000 135.271
54.17000 144.580
54.34000 157.985
54.51000 148.563
54.68000 152.768
54.85000 149.331
55.02000 157.160
55.19000 159.841
55.36000 166.714
55.53000 205.366
55.70000 302.717
55.87000 411.996
56.04000 382.097
56.21000 287.655
56.38000 195.928
56.55000 160.755
56.72000 159.099
56.89000 150.408
57.06000 145.797
57.23000 141.511
57.40000 140.849
57.57000 141.826
57.74000 138.303
57.91000 148.383
58.08000 144.917
58.25000 138.300
58.42000 131.365
58.59000 130.145
58.76000 123.165
58.93000 134.206
59.10000 132.951
59.27000 138.810
59.44000 137.496
59.61000 132.683
59.78000 133.007
59.95000 128.395
60.12000 130.212
60.29000 122.766
60.46000 137.978
60.63000 134.403
60.80000 130.194
60.97000 132.724
61.14000 139.771
61.31000 129.673
61.48000 150.097
61.65000 266.717
61.82000 201.407
61.99000 149.686
62.16000 136.923
62.33000 140.219
62.50000 141.387
62.67000 146.538
62.84000 146.642
63.01000 138.834
63.18000 145.379
63.35000 139.585
63.52000 160.884
63.69000 155.441
63.86000 162.327
64.03000 146.194
64.20000 159.971
64.37000 166.776
64.54000 161.871
64.71000 172.761
64.88000 202.156
65.05000 203.687
65.22000 224.837
65.39000 278.857
65.56000 318.289
65.73000 684.722
65.90000 1179.332
66.07000 405.745
66.24000 318.202
66.41000 485.694
66.58000 342.773
66.75000 336.799
66.92000 357.942
67.09000 356.197
67.26000 397.895
67.43000 425.309
67.60000 476.335
67.77000 496.145
67.94000 535.533
68.11000 583.170
68.28000 671.442
68.45000 757.082
68.62000 1085.869
68.79000 2036.162
68.96000 13699.573
69.13000 60027.387
69.30000 35019.379
69.47000 8159.838
69.64000 1313.986
69.81000 855.806
69.98000 680.880
70.00000 681.896