Folder: Master-Thesis/XRD/XRD/25-09-2025/XY Data

File: BTO_fwhm_results.csv
X Coordinates,Y Coordinates,FWHM
-39.126,-8.316,0.339021
-39.126,8.316,0.372551
-32.361,-23.511,0.348345
-32.361,23.511,0.385989
-29.344,-6.237,0.375501
-29.344,6.237,0.389666
-24.271,-17.634,0.382802
-24.271,17.634,0.3865
-20.0,-34.641,0.388516
-20.0,34.641,0.364898
-19.563,-4.158,0.392009
-19.563,4.158,0.397063
-16.18,-11.756,0.388421
-16.18,11.756,0.387019
-15.0,-25.981,0.396867
-15.0,25.981,0.378102
-10.0,-17.321,0.392194
-10.0,17.321,0.380524
-9.781,-2.079,0.37431
-9.781,2.079,0.388462
-8.09,-5.878,0.389553
-8.09,5.878,0.382511
-5.0,-8.66,0.382584
-5.0,8.66,0.384687
-4.181,-39.781,0.391188
-4.181,39.781,0.375864
-3.136,-29.836,0.391357
-3.136,29.836,0.376718
-2.091,-19.89,0.37806
-2.091,19.89,0.376315
-1.045,-9.945,0.393567
-1.045,9.945,0.369249
0.0,0.0,0.374667
3.09,-9.511,0.388375
3.09,9.511,0.36157
6.18,-19.021,0.387998
6.18,19.021,0.389631
6.691,-7.431,0.389031
6.691,7.431,0.382753
9.135,-4.067,0.375878
9.135,4.067,0.385214
9.271,-28.532,0.385458
9.271,28.532,0.381024
10.0,0.0,0.365445
12.361,-38.042,0.373093
12.361,38.042,0.403956
13.383,-14.863,0.363071
13.383,14.863,0.387225
18.271,-8.135,0.378462
18.271,8.135,0.379778
20.0,0.0,0.390602
20.074,-22.294,0.38462
20.074,22.294,0.393572
26.765,-29.726,0.370338
26.765,29.726,0.381137
27.406,-12.202,0.395814
27.406,12.202,0.397534
30.0,0.0,0.395362
36.542,-16.269,0.398309
36.542,16.269,0.418207
40.0,0.0,0.403582

File: BTO_Mapping_Theta2Theta_25-09-2025_001_02_10-000_0-000.xy
20.00000 536.091
20.17000 526.540
20.34000 564.273
20.51000 550.644
20.68000 541.460
20.85000 538.969
21.02000 543.051
21.19000 542.932
21.36000 542.139
21.53000 528.053
21.70000 553.576
21.87000 590.512
22.04000 582.737
22.21000 619.447
22.38000 596.701
22.55000 550.244
22.72000 540.690
22.89000 511.577
23.06000 511.819
23.23000 489.572
23.40000 488.232
23.57000 494.597
23.74000 490.296
23.91000 487.056
24.08000 497.349
24.25000 467.091
24.42000 475.967
24.59000 472.920
24.76000 462.887
24.93000 464.342
25.10000 466.383
25.27000 468.884
25.44000 470.253
25.61000 465.874
25.78000 453.233
25.95000 442.676
26.12000 466.086
26.29000 450.781
26.46000 452.696
26.63000 432.151
26.80000 435.239
26.97000 455.240
27.14000 438.305
27.31000 424.668
27.48000 431.235
27.65000 421.721
27.82000 409.307
27.99000 399.343
28.16000 429.284
28.33000 425.257
28.50000 428.025
28.67000 416.095
28.84000 414.877
29.01000 406.351
29.18000 417.497
29.35000 402.092
29.52000 416.975
29.69000 393.002
29.86000 408.067
30.03000 409.599
30.20000 405.521
30.37000 401.335
30.54000 393.808
30.71000 405.278
30.88000 404.482
31.05000 498.430
31.22000 853.080
31.39000 1303.041
31.56000 930.945
31.73000 555.950
31.90000 447.942
32.07000 391.918
32.24000 382.560
32.41000 388.310
32.58000 370.700
32.75000 369.608
32.92000 362.454
33.09000 350.034
33.26000 352.176
33.43000 336.426
33.60000 322.185
33.77000 325.819
33.94000 346.378
34.11000 323.492
34.28000 337.474
34.45000 328.445
34.62000 309.786
34.79000 321.045
34.96000 310.239
35.13000 319.404
35.30000 300.927
35.47000 312.047
35.64000 300.856
35.81000 293.251
35.98000 314.571
36.15000 301.076
36.32000 308.523
36.49000 290.453
36.66000 292.429
36.83000 296.754
37.00000 292.608
37.17000 294.450
37.34000 297.156
37.51000 284.687
37.68000 288.145
37.85000 281.346
38.02000 288.767
38.19000 287.281
38.36000 315.008
38.53000 473.466
38.70000 809.235
38.87000 651.570
39.04000 355.469
39.21000 271.114
39.38000 281.725
39.55000 267.970
39.72000 271.194
39.89000 267.114
40.06000 250.262
40.23000 245.688
40.40000 242.541
40.57000 246.289
40.74000 250.877
40.91000 243.994
41.08000 247.236
41.25000 234.711
41.42000 221.945
41.59000 238.767
41.76000 232.913
41.93000 232.563
42.10000 230.983
42.27000 233.452
42.44000 218.560
42.61000 229.634
42.78000 225.257
42.95000 222.543
43.12000 225.090
43.29000 211.676
43.46000 219.413
43.63000 216.753
43.80000 215.155
43.97000 212.995
44.14000 215.103
44.31000 219.960
44.48000 227.810
44.65000 232.584
44.82000 236.198
44.99000 273.627
45.16000 264.320
45.33000 246.666
45.50000 256.019
45.67000 246.140
45.84000 239.025
46.01000 227.442
46.18000 208.083
46.35000 218.494
46.52000 195.737
46.69000 186.246
46.86000 200.919
47.03000 185.313
47.20000 189.155
47.37000 192.681
47.54000 192.460
47.71000 190.745
47.88000 185.548
48.05000 182.704
48.22000 184.434
48.39000 175.260
48.56000 187.193
48.73000 175.180
48.90000 184.224
49.07000 180.301
49.24000 178.020
49.41000 178.315
49.58000 173.905
49.75000 174.605
49.92000 162.104
50.09000 167.411
50.26000 180.332
50.43000 182.129
50.60000 189.479
50.77000 187.188
50.94000 183.493
51.11000 177.406
51.28000 166.849
51.45000 164.425
51.62000 162.448
51.79000 171.594
51.96000 154.258
52.13000 156.443
52.30000 162.668
52.47000 159.001
52.64000 161.664
52.81000 160.951
52.98000 159.722
53.15000 146.170
53.32000 154.704
53.49000 153.951
53.66000 150.468
53.83000 151.671
54.00000 156.708
54.17000 153.444
54.34000 150.703
54.51000 152.997
54.68000 151.572
54.85000 147.558
55.02000 146.930
55.19000 156.270
55.36000 175.895
55.53000 181.361
55.70000 247.786
55.87000 408.273
56.04000 447.136
56.21000 329.128
56.38000 221.251
56.55000 170.686
56.72000 160.137
56.89000 149.347
57.06000 141.793
57.23000 146.958
57.40000 134.932
57.57000 139.812
57.74000 139.985
57.91000 147.999
58.08000 140.196
58.25000 133.230
58.42000 143.538
58.59000 129.407
58.76000 130.360
58.93000 137.848
59.10000 128.592
59.27000 134.687
59.44000 132.887
59.61000 134.815
59.78000 136.280
59.95000 130.728
60.12000 142.055
60.29000 135.420
60.46000 122.218
60.63000 127.189
60.80000 123.877
60.97000 130.861
61.14000 130.498
61.31000 136.619
61.48000 146.297
61.65000 254.328
61.82000 200.482
61.99000 149.452
62.16000 144.247
62.33000 134.442
62.50000 137.496
62.67000 145.725
62.84000 141.937
63.01000 135.995
63.18000 143.399
63.35000 149.566
63.52000 136.110
63.69000 163.894
63.86000 149.516
64.03000 155.366
64.20000 148.085
64.37000 170.594
64.54000 165.856
64.71000 177.283
64.88000 181.741
65.05000 184.722
65.22000 212.174
65.39000 235.275
65.56000 282.314
65.73000 554.904
65.90000 1017.388
66.07000 377.202
66.24000 321.119
66.41000 440.788
66.58000 352.853
66.75000 318.963
66.92000 337.147
67.09000 363.434
67.26000 374.375
67.43000 397.311
67.60000 448.984
67.77000 471.792
67.94000 503.349
68.11000 557.879
68.28000 647.820
68.45000 738.396
68.62000 1002.961
68.79000 1886.740
68.96000 10960.172
69.13000 53707.176
69.30000 32020.854
69.47000 7908.678
69.64000 1271.780
69.81000 837.587
69.98000 670.326
70.00000 655.141

File: BTO_Mapping_Theta2Theta_25-09-2025_001_03_20-000_0-000.xy
20.00000 571.770
20.17000 577.101
20.34000 551.513
20.51000 570.982
20.68000 548.765
20.85000 531.603
21.02000 549.352
21.19000 544.094
21.36000 519.067
21.53000 551.352
21.70000 565.284
21.87000 555.219
22.04000 601.274
22.21000 617.823
22.38000 585.529
22.55000 540.616
22.72000 515.657
22.89000 518.984
23.06000 514.750
23.23000 502.165
23.40000 510.595
23.57000 497.109
23.74000 495.911
23.91000 488.010
24.08000 488.982
24.25000 465.366
24.42000 474.810
24.59000 477.102
24.76000 461.290
24.93000 486.407
25.10000 473.707
25.27000 465.262
25.44000 468.597
25.61000 463.878
25.78000 458.311
25.95000 449.547
26.12000 459.749
26.29000 442.006
26.46000 443.980
26.63000 448.793
26.80000 447.068
26.97000 431.759
27.14000 430.781
27.31000 432.877
27.48000 415.137
27.65000 453.727
27.82000 412.953
27.99000 419.307
28.16000 436.455
28.33000 415.929
28.50000 422.914
28.67000 411.317
28.84000 407.010
29.01000 407.214
29.18000 411.836
29.35000 399.278
29.52000 405.109
29.69000 390.036
29.86000 402.810
30.03000 401.811
30.20000 404.970
30.37000 405.088
30.54000 412.160
30.71000 419.474
30.88000 420.037
31.05000 510.373
31.22000 860.211
31.39000 1337.276
31.56000 1027.881
31.73000 585.718
31.90000 465.416
32.07000 418.376
32.24000 388.181
32.41000 351.564
32.58000 366.523
32.75000 368.280
32.92000 381.614
33.09000 347.457
33.26000 341.814
33.43000 319.441
33.60000 349.684
33.77000 338.881
33.94000 302.246
34.11000 325.660
34.28000 332.734
34.45000 333.446
34.62000 316.398
34.79000 315.607
34.96000 310.293
35.13000 297.445
35.30000 300.967
35.47000 302.551
35.64000 314.315
35.81000 297.076
35.98000 297.130
36.15000 297.393
36.32000 295.054
36.49000 291.296
36.66000 283.988
36.83000 301.825
37.00000 297.601
37.17000 304.054
37.34000 281.546
37.51000 279.602
37.68000 280.204
37.85000 290.190
38.02000 278.829
38.19000 289.604
38.36000 311.658
38.53000 433.338
38.70000 717.598
38.87000 613.041
39.04000 329.953
39.21000 288.285
39.38000 253.485
39.55000 256.033
39.72000 272.371
39.89000 258.387
40.06000 263.974
40.23000 263.051
40.40000 249.979
40.57000 235.810
40.74000 244.088
40.91000 240.332
41.08000 245.360
41.25000 229.078
41.42000 232.510
41.59000 229.524
41.76000 224.513
41.93000 225.580
42.10000 244.361
42.27000 220.782
42.44000 236.181
42.61000 227.491
42.78000 217.756
42.95000 218.412
43.12000 219.437
43.29000 221.180
43.46000 218.113
43.63000 220.550
43.80000 210.414
43.97000 209.683
44.14000 219.273
44.31000 218.486
44.48000 214.500
44.65000 228.032
44.82000 235.183
44.99000 258.233
45.16000 276.313
45.33000 239.054
45.50000 248.192
45.67000 231.081
45.84000 231.680
46.01000 224.198
46.18000 203.632
46.35000 212.440
46.52000 195.518
46.69000 191.128
46.86000 205.704
47.03000 199.164
47.20000 182.740
47.37000 181.994
47.54000 187.390
47.71000 187.903
47.88000 195.081
48.05000 183.440
48.22000 198.528
48.39000 181.535
48.56000 179.213
48.73000 185.048
48.90000 177.788
49.07000 175.601
49.24000 175.906
49.41000 163.174
49.58000 194.696
49.75000 169.395
49.92000 172.723
50.09000 171.798
50.26000 169.353
50.43000 177.174
50.60000 190.830
50.77000 193.178
50.94000 179.566
51.11000 172.266
51.28000 165.821
51.45000 167.749
51.62000 161.424
51.79000 167.058
51.96000 155.228
52.13000 160.935
52.30000 158.912
52.47000 157.617
52.64000 149.119
52.81000 163.264
52.98000 159.380
53.15000 151.360
53.32000 162.993
53.49000 157.502
53.66000 153.943
53.83000 150.050
54.00000 153.516
54.17000 150.705
54.34000 147.944
54.51000 139.687
54.68000 150.083
54.85000 149.222
55.02000 147.117
55.19000 153.147
55.36000 159.768
55.53000 183.788
55.70000 240.946
55.87000 374.766
56.04000 422.995
56.21000 291.061
56.38000 198.700
56.55000 172.633
56.72000 146.909
56.89000 145.061
57.06000 134.504
57.23000 136.760
57.40000 140.384
57.57000 137.371
57.74000 141.136
57.91000 130.813
58.08000 134.476
58.25000 130.064
58.42000 125.471
58.59000 139.260
58.76000 133.276
58.93000 138.413
59.10000 129.285
59.27000 127.568
59.44000 128.774
59.61000 139.058
59.78000 123.679
59.95000 137.338
60.12000 127.117
60.29000 120.353
60.46000 132.621
60.63000 139.070
60.80000 134.069
60.97000 142.049
61.14000 128.243
61.31000 130.570
61.48000 140.160
61.65000 264.187
61.82000 204.059
61.99000 150.321
62.16000 135.850
62.33000 138.722
62.50000 146.281
62.67000 148.256
62.84000 137.203
63.01000 144.530
63.18000 142.199
63.35000 150.177
63.52000 159.944
63.69000 146.921
63.86000 150.845
64.03000 142.789
64.20000 161.055
64.37000 168.333
64.54000 171.507
64.71000 166.949
64.88000 178.981
65.05000 195.205
65.22000 209.422
65.39000 226.230
65.56000 284.788
65.73000 570.165
65.90000 1020.143
66.07000 372.611
66.24000 309.920
66.41000 440.140
66.58000 359.332
66.75000 323.062
66.92000 333.407
67.09000 366.428
67.26000 376.197
67.43000 411.550
67.60000 431.403
67.77000 476.637
67.94000 499.574
68.11000 563.108
68.28000 628.993
68.45000 728.115
68.62000 991.301
68.79000 1841.216
68.96000 10287.393
69.13000 53599.863
69.30000 32171.836
69.47000 8258.921
69.64000 1244.090
69.81000 848.707
69.98000 683.355
70.00000 662.171

File: BTO_Mapping_Theta2Theta_25-09-2025_001_04_30-000_0-000.xy
20.00000 576.698
20.17000 571.586
20.34000 556.627
20.51000 546.378
20.68000 554.318
20.85000 541.074
21.02000 534.354
21.19000 554.740
21.36000 543.140
21.53000 544.885
21.70000 547.834
21.87000 567.321
22.04000 585.672
22.21000 618.224
22.38000 572.654
22.55000 553.133
22.72000 525.115
22.89000 526.025
23.06000 501.186
23.23000 512.938
23.40000 506.534
23.57000 503.547
23.74000 482.726
23.91000 484.319
24.08000 474.686
24.25000 488.465
24.42000 492.345
24.59000 473.419
24.76000 479.803
24.93000 464.252
25.10000 468.024
25.27000 470.616
25.44000 469.096
25.61000 448.891
25.78000 456.684
25.95000 444.737
26.12000 436.897
26.29000 455.053
26.46000 436.659
26.63000 447.300
26.80000 452.627
26.97000 442.357
27.14000 438.221
27.31000 444.364
27.48000 432.509
27.65000 401.316
27.82000 415.277
27.99000 440.282
28.16000 397.293
28.33000 430.516
28.50000 418.498
28.67000 411.330
28.84000 413.529
29.01000 393.966
29.18000 420.167
29.35000 401.304
29.52000 413.763
29.69000 390.398
29.86000 407.173
30.03000 414.918
30.20000 410.797
30.37000 418.360
30.54000 409.741
30.71000 420.726
30.88000 445.589
31.05000 544.959
31.22000 862.641
31.39000 1294.728
31.56000 1018.594
31.73000 621.529
31.90000 446.611
32.07000 416.762
32.24000 394.875
32.41000 373.156
32.58000 371.294
32.75000 383.696
32.92000 361.485
33.09000 358.001
33.26000 344.677
33.43000 332.424
33.60000 327.237
33.77000 324.377
33.94000 337.502
34.11000 332.958
34.28000 321.015
34.45000 318.456
34.62000 310.683
34.79000 319.843
34.96000 321.620
35.13000 310.574
35.30000 313.269
35.47000 318.352
35.64000 305.008
35.81000 289.602
35.98000 298.666
36.15000 313.307
36.32000 283.966
36.49000 296.269
36.66000 291.022
36.83000 279.051
37.00000 299.006
37.17000 293.464
37.34000 289.234
37.51000 287.273
37.68000 300.715
37.85000 270.942
38.02000 283.577
38.19000 284.029
38.36000 317.815
38.53000 435.783
38.70000 666.308
38.87000 503.181
39.04000 301.938
39.21000 269.485
39.38000 266.012
39.55000 273.709
39.72000 267.845
39.89000 261.540
40.06000 267.447
40.23000 265.010
40.40000 257.842
40.57000 237.157
40.74000 246.525
40.91000 244.625
41.08000 251.400
41.25000 248.668
41.42000 239.784
41.59000 224.113
41.76000 224.153
41.93000 222.966
42.10000 231.762
42.27000 227.418
42.44000 235.580
42.61000 230.687
42.78000 228.994
42.95000 219.158
43.12000 215.236
43.29000 228.529
43.46000 217.344
43.63000 231.062
43.80000 217.156
43.97000 209.837
44.14000 212.022
44.31000 224.301
44.48000 215.287
44.65000 215.546
44.82000 235.997
44.99000 239.356
45.16000 251.155
45.33000 253.378
45.50000 247.742
45.67000 240.674
45.84000 219.566
46.01000 219.765
46.18000 204.971
46.35000 206.184
46.52000 197.161
46.69000 205.672
46.86000 196.058
47.03000 185.138
47.20000 191.303
47.37000 194.395
47.54000 180.824
47.71000 179.394
47.88000 187.697
48.05000 183.171
48.22000 192.242
48.39000 186.272
48.56000 178.578
48.73000 182.403
48.90000 182.472
49.07000 185.804
49.24000 178.251
49.41000 189.822
49.58000 177.213
49.75000 174.136
49.92000 173.225
50.09000 162.390
50.26000 179.324
50.43000 180.141
50.60000 179.696
50.77000 178.772
50.94000 177.381
51.11000 180.299
51.28000 162.562
51.45000 162.106
51.62000 155.398
51.79000 165.504
51.96000 162.982
52.13000 170.939
52.30000 152.172
52.47000 168.257
52.64000 169.789
52.81000 157.476
52.98000 153.203
53.15000 157.095
53.32000 152.727
53.49000 166.132
53.66000 161.043
53.83000 158.168
54.00000 157.127
54.17000 158.729
54.34000 152.663
54.51000 155.018
54.68000 149.957
54.85000 147.559
55.02000 143.632
55.19000 155.638
55.36000 157.180
55.53000 179.864
55.70000 243.713
55.87000 319.006
56.04000 318.057
56.21000 245.971
56.38000 194.941
56.55000 170.270
56.72000 161.969
56.89000 144.694
57.06000 138.664
57.23000 146.156
57.40000 143.694
57.57000 134.638
57.74000 134.846
57.91000 139.663
58.08000 140.120
58.25000 135.533
58.42000 127.462
58.59000 139.040
58.76000 143.255
58.93000 142.561
59.10000 135.163
59.27000 137.258
59.44000 126.857
59.61000 136.537
59.78000 133.030
59.95000 135.856
60.12000 118.557
60.29000 131.840
60.46000 134.308
60.63000 136.651
60.80000 138.153
60.97000 131.145
61.14000 140.105
61.31000 138.024
61.48000 147.814
61.65000 261.266
61.82000 196.174
61.99000 138.385
62.16000 132.542
62.33000 138.747
62.50000 148.715
62.67000 142.854
62.84000 155.417
63.01000 143.981
63.18000 148.068
63.35000 160.968
63.52000 142.450
63.69000 146.961
63.86000 148.212
64.03000 156.689
64.20000 169.533
64.37000 163.425
64.54000 168.643
64.71000 172.496
64.88000 183.353
65.05000 187.611
65.22000 198.437
65.39000 231.735
65.56000 282.802
65.73000 543.256
65.90000 1059.303
66.07000 398.243
66.24000 299.846
66.41000 448.331
66.58000 350.881
66.75000 332.395
66.92000 338.125
67.09000 364.355
67.26000 392.973
67.43000 403.389
67.60000 443.931
67.77000 483.233
67.94000 515.823
68.11000 570.205
68.28000 602.751
68.45000 720.029
68.62000 1003.790
68.79000 1792.150
68.96000 9584.061
69.13000 53352.367
69.30000 32419.145
69.47000 8719.178
69.64000 1232.579
69.81000 836.167
69.98000 663.363
70.00000 660.034

File: BTO_Mapping_Theta2Theta_25-09-2025_001_05_40-000_0-000.xy
20.00000 558.786
20.17000 562.266
20.34000 543.527
20.51000 553.686
20.68000 562.998
20.85000 543.143
21.02000 550.894
21.19000 544.397
21.36000 537.782
21.53000 541.375
21.70000 553.362
21.87000 558.891
22.04000 588.435
22.21000 597.650
22.38000 571.211
22.55000 536.586
22.72000 521.407
22.89000 486.129
23.06000 520.735
23.23000 509.110
23.40000 500.352
23.57000 508.941
23.74000 485.689
23.91000 504.485
24.08000 477.030
24.25000 477.713
24.42000 458.006
24.59000 488.315
24.76000 471.407
24.93000 454.498
25.10000 468.479
25.27000 464.821
25.44000 453.106
25.61000 461.299
25.78000 468.970
25.95000 449.404
26.12000 457.026
26.29000 434.745
26.46000 429.779
26.63000 470.368
26.80000 437.208
26.97000 452.871
27.14000 442.099
27.31000 433.623
27.48000 448.287
27.65000 410.868
27.82000 430.342
27.99000 417.356
28.16000 416.745
28.33000 417.221
28.50000 408.101
28.67000 439.658
28.84000 443.779
29.01000 405.346
29.18000 417.169
29.35000 413.254
29.52000 401.490
29.69000 410.153
29.86000 404.648
30.03000 407.516
30.20000 404.510
30.37000 405.129
30.54000 419.793
30.71000 425.187
30.88000 426.512
31.05000 524.451
31.22000 812.171
31.39000 1104.988
31.56000 892.853
31.73000 561.672
31.90000 447.274
32.07000 413.364
32.24000 384.084
32.41000 390.535
32.58000 381.605
32.75000 376.956
32.92000 353.783
33.09000 353.812
33.26000 326.955
33.43000 350.841
33.60000 335.123
33.77000 320.332
33.94000 334.661
34.11000 315.694
34.28000 327.654
34.45000 328.215
34.62000 311.635
34.79000 325.758
34.96000 323.408
35.13000 303.166
35.30000 307.251
35.47000 313.933
35.64000 293.403
35.81000 288.172
35.98000 301.382
36.15000 293.828
36.32000 299.451
36.49000 290.426
36.66000 289.808
36.83000 288.813
37.00000 291.034
37.17000 295.998
37.34000 295.373
37.51000 280.060
37.68000 297.624
37.85000 291.084
38.02000 285.045
38.19000 285.777
38.36000 306.359
38.53000 405.593
38.70000 562.428
38.87000 440.518
39.04000 318.844
39.21000 286.953
39.38000 277.409
39.55000 265.966
39.72000 263.589
39.89000 255.029
40.06000 240.521
40.23000 261.807
40.40000 234.744
40.57000 240.236
40.74000 251.800
40.91000 239.388
41.08000 245.062
41.25000 253.438
41.42000 243.144
41.59000 240.649
41.76000 259.438
41.93000 234.160
42.10000 230.133
42.27000 223.935
42.44000 228.223
42.61000 233.276
42.78000 229.110
42.95000 230.227
43.12000 223.582
43.29000 208.420
43.46000 215.836
43.63000 223.994
43.80000 213.793
43.97000 218.277
44.14000 211.272
44.31000 215.656
44.48000 225.368
44.65000 233.079
44.82000 242.864
44.99000 238.102
45.16000 227.993
45.33000 265.869
45.50000 240.277
45.67000 236.210
45.84000 212.558
46.01000 207.617
46.18000 199.793
46.35000 203.315
46.52000 212.723
46.69000 193.797
46.86000 195.680
47.03000 202.928
47.20000 189.564
47.37000 191.014
47.54000 185.019
47.71000 184.372
47.88000 177.839
48.05000 170.872
48.22000 175.326
48.39000 184.507
48.56000 189.626
48.73000 180.823
48.90000 183.092
49.07000 173.321
49.24000 172.018
49.41000 179.248
49.58000 169.023
49.75000 180.253
49.92000 176.829
50.09000 182.124
50.26000 175.165
50.43000 178.448
50.60000 178.372
50.77000 179.938
50.94000 176.518
51.11000 174.178
51.28000 172.053
51.45000 167.437
51.62000 159.439
51.79000 159.892
51.96000 167.928
52.13000 152.285
52.30000 164.968
52.47000 148.831
52.64000 164.797
52.81000 155.392
52.98000 149.860
53.15000 150.826
53.32000 155.309
53.49000 164.838
53.66000 149.202
53.83000 158.637
54.00000 158.035
54.17000 147.812
54.34000 158.797
54.51000 150.555
54.68000 163.563
54.85000 153.660
55.02000 147.697
55.19000 159.012
55.36000 155.284
55.53000 186.814
55.70000 213.846
55.87000 259.509
56.04000 261.458
56.21000 218.297
56.38000 184.108
56.55000 162.835
56.72000 144.544
56.89000 152.081
57.06000 138.991
57.23000 144.735
57.40000 145.029
57.57000 139.283
57.74000 130.033
57.91000 134.338
58.08000 141.534
58.25000 139.830
58.42000 133.118
58.59000 127.244
58.76000 127.947
58.93000 145.836
59.10000 140.061
59.27000 133.260
59.44000 127.535
59.61000 134.515
59.78000 129.202
59.95000 134.226
60.12000 137.655
60.29000 134.609
60.46000 142.491
60.63000 122.512
60.80000 132.477
60.97000 125.659
61.14000 137.319
61.31000 145.188
61.48000 148.907
61.65000 251.853
61.82000 209.672
61.99000 143.151
62.16000 145.808
62.33000 144.019
62.50000 134.746
62.67000 139.677
62.84000 141.690
63.01000 152.621
63.18000 153.214
63.35000 132.999
63.52000 142.864
63.69000 152.054
63.86000 151.552
64.03000 165.954
64.20000 171.506
64.37000 156.460
64.54000 170.501
64.71000 181.195
64.88000 189.374
65.05000 191.355
65.22000 206.043
65.39000 236.294
65.56000 274.726
65.73000 531.090
65.90000 1047.998
66.07000 395.031
66.24000 302.741
66.41000 443.201
66.58000 360.497
66.75000 322.875
66.92000 336.030
67.09000 347.615
67.26000 395.074
67.43000 418.505
67.60000 437.489
67.77000 480.460
67.94000 513.446
68.11000 560.018
68.28000 622.459
68.45000 744.750
68.62000 1000.416
68.79000 1782.741
68.96000 8957.427
69.13000 53654.863
69.30000 33113.941
69.47000 9351.946
69.64000 1275.962
69.81000 865.162
69.98000 701.421
70.00000 676.356