Folder: Master-Thesis/XRD/XRD/25-09-2025/XY Data (part 6)

File: BTO_Mapping_Theta2Theta_25-09-2025_001_49_-4-181_-39-781.xy
20.00000 563.010
20.17000 559.631
20.34000 555.238
20.51000 550.496
20.68000 544.279
20.85000 544.415
21.02000 551.852
21.19000 532.168
21.36000 538.603
21.53000 552.581
21.70000 573.103
21.87000 643.437
22.04000 734.954
22.21000 712.855
22.38000 605.255
22.55000 547.224
22.72000 533.765
22.89000 517.458
23.06000 490.974
23.23000 478.935
23.40000 492.402
23.57000 489.700
23.74000 482.507
23.91000 502.623
24.08000 477.964
24.25000 501.419
24.42000 483.012
24.59000 497.105
24.76000 472.280
24.93000 478.267
25.10000 467.755
25.27000 481.947
25.44000 457.198
25.61000 436.034
25.78000 477.084
25.95000 464.167
26.12000 462.102
26.29000 421.088
26.46000 450.950
26.63000 447.566
26.80000 444.166
26.97000 430.175
27.14000 415.513
27.31000 433.884
27.48000 418.343
27.65000 436.895
27.82000 437.279
27.99000 427.168
28.16000 419.757
28.33000 427.462
28.50000 424.492
28.67000 420.588
28.84000 418.675
29.01000 414.548
29.18000 390.369
29.35000 399.366
29.52000 413.201
29.69000 398.333
29.86000 410.366
30.03000 422.448
30.20000 436.097
30.37000 393.724
30.54000 407.693
30.71000 403.132
30.88000 473.287
31.05000 620.094
31.22000 1407.823
31.39000 2171.724
31.56000 1460.331
31.73000 719.831
31.90000 471.558
32.07000 392.133
32.24000 380.356
32.41000 375.837
32.58000 363.134
32.75000 371.131
32.92000 381.075
33.09000 355.408
33.26000 352.645
33.43000 345.426
33.60000 333.912
33.77000 326.391
33.94000 317.414
34.11000 325.098
34.28000 323.601
34.45000 319.813
34.62000 319.522
34.79000 317.803
34.96000 323.258
35.13000 305.520
35.30000 299.407
35.47000 316.539
35.64000 298.890
35.81000 304.403
35.98000 296.888
36.15000 307.783
36.32000 300.107
36.49000 288.502
36.66000 291.590
36.83000 291.396
37.00000 295.516
37.17000 300.805
37.34000 289.079
37.51000 283.658
37.68000 283.383
37.85000 285.851
38.02000 282.190
38.19000 292.487
38.36000 317.821
38.53000 456.416
38.70000 596.005
38.87000 507.990
39.04000 343.017
39.21000 283.686
39.38000 266.895
39.55000 267.665
39.72000 261.410
39.89000 271.691
40.06000 249.874
40.23000 252.883
40.40000 246.717
40.57000 257.046
40.74000 245.669
40.91000 240.249
41.08000 247.093
41.25000 245.720
41.42000 246.329
41.59000 242.105
41.76000 241.023
41.93000 244.089
42.10000 240.341
42.27000 228.887
42.44000 242.536
42.61000 228.805
42.78000 227.773
42.95000 227.740
43.12000 226.233
43.29000 223.844
43.46000 229.036
43.63000 228.018
43.80000 213.764
43.97000 231.858
44.14000 226.190
44.31000 235.660
44.48000 227.525
44.65000 240.473
44.82000 285.198
44.99000 369.214
45.16000 338.263
45.33000 319.042
45.50000 276.985
45.67000 254.103
45.84000 232.040
46.01000 224.209
46.18000 203.735
46.35000 212.737
46.52000 200.096
46.69000 194.206
46.86000 194.534
47.03000 191.753
47.20000 198.583
47.37000 184.686
47.54000 191.654
47.71000 180.519
47.88000 170.877
48.05000 189.531
48.22000 179.249
48.39000 174.451
48.56000 183.134
48.73000 177.053
48.90000 186.124
49.07000 179.610
49.24000 175.933
49.41000 194.706
49.58000 173.146
49.75000 173.001
49.92000 173.622
50.09000 173.328
50.26000 177.612
50.43000 190.387
50.60000 223.995
50.77000 219.323
50.94000 200.077
51.11000 179.607
51.28000 175.424
51.45000 152.917
51.62000 163.114
51.79000 157.655
51.96000 163.769
52.13000 158.318
52.30000 156.706
52.47000 156.419
52.64000 168.400
52.81000 157.381
52.98000 150.978
53.15000 151.442
53.32000 157.713
53.49000 152.805
53.66000 151.034
53.83000 152.803
54.00000 166.240
54.17000 153.149
54.34000 151.115
54.51000 152.415
54.68000 147.173
54.85000 143.898
55.02000 142.992
55.19000 153.746
55.36000 167.798
55.53000 203.223
55.70000 309.656
55.87000 401.262
56.04000 387.736
56.21000 272.490
56.38000 204.270
56.55000 174.925
56.72000 161.308
56.89000 149.062
57.06000 139.930
57.23000 133.015
57.40000 141.297
57.57000 147.142
57.74000 136.072
57.91000 140.960
58.08000 139.738
58.25000 142.260
58.42000 129.904
58.59000 140.653
58.76000 135.213
58.93000 131.189
59.10000 132.283
59.27000 128.810
59.44000 129.585
59.61000 140.839
59.78000 124.696
59.95000 132.726
60.12000 138.081
60.29000 128.414
60.46000 136.100
60.63000 132.893
60.80000 136.596
60.97000 134.694
61.14000 137.562
61.31000 128.171
61.48000 148.291
61.65000 272.292
61.82000 209.478
61.99000 143.697
62.16000 145.037
62.33000 127.864
62.50000 136.837
62.67000 138.258
62.84000 137.807
63.01000 139.139
63.18000 150.959
63.35000 140.660
63.52000 158.668
63.69000 157.075
63.86000 140.385
64.03000 150.572
64.20000 168.339
64.37000 173.876
64.54000 165.388
64.71000 182.547
64.88000 188.689
65.05000 197.985
65.22000 226.993
65.39000 266.034
65.56000 308.640
65.73000 647.623
65.90000 1221.548
66.07000 423.290
66.24000 322.358
66.41000 469.792
66.58000 352.462
66.75000 352.223
66.92000 343.197
67.09000 379.296
67.26000 395.416
67.43000 435.121
67.60000 467.224
67.77000 481.449
67.94000 535.133
68.11000 597.109
68.28000 638.157
68.45000 750.625
68.62000 1096.797
68.79000 2101.501
68.96000 12671.545
69.13000 62783.746
69.30000 37988.129
69.47000 9677.773
69.64000 1365.374
69.81000 860.912
69.98000 708.443
70.00000 677.216

File: BTO_Mapping_Theta2Theta_25-09-2025_001_50_3-090_-9-511.xy
20.00000 568.992
20.17000 555.189
20.34000 543.176
20.51000 538.034
20.68000 555.366
20.85000 562.037
21.02000 551.513
21.19000 529.732
21.36000 549.686
21.53000 539.805
21.70000 567.936
21.87000 572.434
22.04000 626.794
22.21000 643.268
22.38000 587.694
22.55000 561.369
22.72000 534.767
22.89000 517.541
23.06000 515.594
23.23000 480.641
23.40000 502.869
23.57000 484.041
23.74000 499.488
23.91000 495.188
24.08000 492.371
24.25000 486.578
24.42000 470.388
24.59000 476.187
24.76000 461.678
24.93000 461.784
25.10000 462.132
25.27000 459.440
25.44000 469.015
25.61000 447.452
25.78000 452.167
25.95000 453.151
26.12000 443.374
26.29000 444.199
26.46000 458.865
26.63000 434.747
26.80000 436.605
26.97000 436.917
27.14000 423.338
27.31000 436.340
27.48000 423.774
27.65000 428.701
27.82000 422.360
27.99000 429.404
28.16000 422.028
28.33000 418.501
28.50000 404.079
28.67000 411.565
28.84000 414.071
29.01000 399.303
29.18000 390.479
29.35000 393.705
29.52000 394.572
29.69000 411.036
29.86000 408.453
30.03000 413.365
30.20000 398.494
30.37000 407.335
30.54000 398.846
30.71000 410.369
30.88000 427.120
31.05000 537.358
31.22000 1049.375
31.39000 1578.760
31.56000 1074.047
31.73000 596.111
31.90000 443.038
32.07000 389.393
32.24000 383.292
32.41000 358.025
32.58000 375.632
32.75000 368.842
32.92000 354.532
33.09000 344.002
33.26000 335.707
33.43000 341.075
33.60000 343.444
33.77000 336.880
33.94000 318.325
34.11000 322.656
34.28000 325.225
34.45000 330.496
34.62000 311.384
34.79000 314.291
34.96000 312.178
35.13000 316.334
35.30000 303.685
35.47000 303.989
35.64000 299.133
35.81000 302.802
35.98000 298.091
36.15000 292.760
36.32000 297.696
36.49000 298.692
36.66000 297.778
36.83000 299.564
37.00000 299.768
37.17000 297.939
37.34000 283.635
37.51000 276.023
37.68000 295.131
37.85000 289.488
38.02000 276.590
38.19000 280.838
38.36000 324.778
38.53000 507.608
38.70000 821.162
38.87000 658.430
39.04000 343.237
39.21000 277.977
39.38000 275.348
39.55000 280.913
39.72000 268.737
39.89000 269.013
40.06000 251.353
40.23000 241.651
40.40000 249.710
40.57000 249.572
40.74000 251.006
40.91000 249.471
41.08000 241.474
41.25000 245.761
41.42000 244.109
41.59000 238.586
41.76000 237.230
41.93000 223.061
42.10000 236.825
42.27000 230.847
42.44000 236.512
42.61000 218.734
42.78000 244.205
42.95000 230.972
43.12000 236.012
43.29000 218.551
43.46000 236.212
43.63000 224.528
43.80000 214.732
43.97000 209.679
44.14000 220.025
44.31000 223.419
44.48000 218.228
44.65000 216.298
44.82000 233.666
44.99000 269.816
45.16000 275.621
45.33000 270.709
45.50000 251.041
45.67000 235.336
45.84000 234.995
46.01000 215.445
46.18000 206.162
46.35000 191.174
46.52000 215.223
46.69000 184.360
46.86000 178.742
47.03000 193.826
47.20000 187.676
47.37000 194.714
47.54000 191.919
47.71000 194.177
47.88000 184.301
48.05000 193.720
48.22000 179.830
48.39000 173.644
48.56000 188.041
48.73000 192.451
48.90000 181.801
49.07000 175.292
49.24000 179.543
49.41000 187.182
49.58000 168.868
49.75000 168.196
49.92000 162.447
50.09000 170.810
50.26000 188.081
50.43000 190.003
50.60000 201.312
50.77000 201.100
50.94000 196.150
51.11000 180.197
51.28000 177.569
51.45000 169.383
51.62000 158.323
51.79000 162.479
51.96000 151.819
52.13000 160.627
52.30000 153.721
52.47000 152.848
52.64000 169.504
52.81000 142.927
52.98000 152.445
53.15000 159.895
53.32000 149.727
53.49000 162.939
53.66000 152.253
53.83000 164.535
54.00000 154.894
54.17000 157.123
54.34000 160.953
54.51000 146.692
54.68000 156.796
54.85000 154.402
55.02000 155.478
55.19000 161.479
55.36000 163.206
55.53000 192.535
55.70000 284.714
55.87000 440.192
56.04000 456.958
56.21000 313.080
56.38000 211.357
56.55000 166.081
56.72000 154.346
56.89000 155.272
57.06000 155.632
57.23000 145.297
57.40000 145.408
57.57000 139.840
57.74000 141.328
57.91000 139.052
58.08000 140.631
58.25000 139.636
58.42000 140.759
58.59000 128.675
58.76000 129.908
58.93000 135.569
59.10000 132.135
59.27000 132.597
59.44000 142.735
59.61000 132.221
59.78000 132.420
59.95000 130.257
60.12000 123.501
60.29000 125.112
60.46000 141.520
60.63000 131.464
60.80000 135.672
60.97000 128.865
61.14000 141.726
61.31000 132.032
61.48000 141.219
61.65000 257.607
61.82000 207.097
61.99000 144.630
62.16000 149.035
62.33000 141.035
62.50000 140.898
62.67000 143.064
62.84000 137.215
63.01000 135.157
63.18000 141.724
63.35000 151.995
63.52000 143.680
63.69000 157.327
63.86000 138.361
64.03000 147.825
64.20000 160.087
64.37000 158.435
64.54000 165.749
64.71000 149.920
64.88000 181.645
65.05000 184.142
65.22000 220.996
65.39000 246.582
65.56000 290.621
65.73000 605.619
65.90000 1079.275
66.07000 377.111
66.24000 322.150
66.41000 465.801
66.58000 334.228
66.75000 317.774
66.92000 343.651
67.09000 369.721
67.26000 383.047
67.43000 399.266
67.60000 445.105
67.77000 478.551
67.94000 503.748
68.11000 554.231
68.28000 632.815
68.45000 737.567
68.62000 1049.018
68.79000 1908.714
68.96000 11704.633
69.13000 54910.387
69.30000 32510.605
69.47000 7897.255
69.64000 1276.302
69.81000 852.314
69.98000 676.158
70.00000 662.439

File: BTO_Mapping_Theta2Theta_25-09-2025_001_53_12-361_-38-042.xy
20.00000 582.406
20.17000 573.402
20.34000 562.679
20.51000 546.591
20.68000 563.846
20.85000 535.566
21.02000 563.416
21.19000 508.498
21.36000 544.517
21.53000 553.122
21.70000 556.915
21.87000 565.320
22.04000 595.340
22.21000 617.642
22.38000 589.654
22.55000 550.595
22.72000 521.666
22.89000 521.344
23.06000 486.935
23.23000 495.269
23.40000 499.585
23.57000 501.665
23.74000 505.233
23.91000 479.513
24.08000 494.441
24.25000 492.512
24.42000 472.638
24.59000 470.553
24.76000 457.357
24.93000 465.833
25.10000 469.585
25.27000 476.869
25.44000 463.172
25.61000 456.887
25.78000 476.637
25.95000 470.094
26.12000 450.256
26.29000 436.850
26.46000 450.353
26.63000 433.102
26.80000 443.000
26.97000 434.373
27.14000 433.487
27.31000 420.271
27.48000 407.581
27.65000 436.439
27.82000 439.221
27.99000 433.869
28.16000 425.438
28.33000 413.558
28.50000 425.608
28.67000 414.294
28.84000 413.820
29.01000 416.417
29.18000 388.786
29.35000 396.533
29.52000 397.523
29.69000 391.439
29.86000 406.044
30.03000 404.346
30.20000 394.651
30.37000 411.531
30.54000 403.110
30.71000 425.534
30.88000 425.699
31.05000 518.625
31.22000 903.418
31.39000 1404.247
31.56000 1000.520
31.73000 558.420
31.90000 443.014
32.07000 399.931
32.24000 387.896
32.41000 367.860
32.58000 385.846
32.75000 354.508
32.92000 376.783
33.09000 350.943
33.26000 342.878
33.43000 327.308
33.60000 332.330
33.77000 343.800
33.94000 328.789
34.11000 325.737
34.28000 321.289
34.45000 301.905
34.62000 322.375
34.79000 312.978
34.96000 308.663
35.13000 326.126
35.30000 308.416
35.47000 317.830
35.64000 305.379
35.81000 303.249
35.98000 297.259
36.15000 281.163
36.32000 284.805
36.49000 286.062
36.66000 287.149
36.83000 290.602
37.00000 293.344
37.17000 297.886
37.34000 285.985
37.51000 294.796
37.68000 286.184
37.85000 282.683
38.02000 289.022
38.19000 287.683
38.36000 319.527
38.53000 466.440
38.70000 789.085
38.87000 682.443
39.04000 356.120
39.21000 280.044
39.38000 270.984
39.55000 274.493
39.72000 253.416
39.89000 256.964
40.06000 254.414
40.23000 261.735
40.40000 264.794
40.57000 243.612
40.74000 256.257
40.91000 241.240
41.08000 247.854
41.25000 236.911
41.42000 235.269
41.59000 235.161
41.76000 232.613
41.93000 231.920
42.10000 242.991
42.27000 226.612
42.44000 230.673
42.61000 234.834
42.78000 213.322
42.95000 215.648
43.12000 235.833
43.29000 227.392
43.46000 235.481
43.63000 229.032
43.80000 219.898
43.97000 211.227
44.14000 225.027
44.31000 222.502
44.48000 208.161
44.65000 226.333
44.82000 240.295
44.99000 251.384
45.16000 263.357
45.33000 258.698
45.50000 258.859
45.67000 236.955
45.84000 239.030
46.01000 228.169
46.18000 203.790
46.35000 203.068
46.52000 202.540
46.69000 202.232
46.86000 199.825
47.03000 193.712
47.20000 193.729
47.37000 189.184
47.54000 187.748
47.71000 180.203
47.88000 182.654
48.05000 184.119
48.22000 172.987
48.39000 178.383
48.56000 172.846
48.73000 181.167
48.90000 177.338
49.07000 173.750
49.24000 181.342
49.41000 163.787
49.58000 178.509
49.75000 173.450
49.92000 178.059
50.09000 183.721
50.26000 175.492
50.43000 191.497
50.60000 197.627
50.77000 190.334
50.94000 196.255
51.11000 181.075
51.28000 168.832
51.45000 163.925
51.62000 145.643
51.79000 160.745
51.96000 161.639
52.13000 167.094
52.30000 153.016
52.47000 153.884
52.64000 154.761
52.81000 165.776
52.98000 159.186
53.15000 157.752
53.32000 153.640
53.49000 153.684
53.66000 160.176
53.83000 157.522
54.00000 146.981
54.17000 155.445
54.34000 156.231
54.51000 155.670
54.68000 142.246
54.85000 154.652
55.02000 150.618
55.19000 162.319
55.36000 152.429
55.53000 183.560
55.70000 272.020
55.87000 423.481
56.04000 423.351
56.21000 318.451
56.38000 222.675
56.55000 171.590
56.72000 158.557
56.89000 150.052
57.06000 145.337
57.23000 139.070
57.40000 143.765
57.57000 144.527
57.74000 143.499
57.91000 136.419
58.08000 136.590
58.25000 136.024
58.42000 144.317
58.59000 139.190
58.76000 149.038
58.93000 131.410
59.10000 138.891
59.27000 135.079
59.44000 129.519
59.61000 135.473
59.78000 136.018
59.95000 139.000
60.12000 147.402
60.29000 121.482
60.46000 128.905
60.63000 133.947
60.80000 138.481
60.97000 133.934
61.14000 139.673
61.31000 139.646
61.48000 132.979
61.65000 252.661
61.82000 197.393
61.99000 130.834
62.16000 142.879
62.33000 131.773
62.50000 135.674
62.67000 145.292
62.84000 145.807
63.01000 142.881
63.18000 144.214
63.35000 144.095
63.52000 148.642
63.69000 139.919
63.86000 150.463
64.03000 166.302
64.20000 162.600
64.37000 154.158
64.54000 163.853
64.71000 171.229
64.88000 182.440
65.05000 195.978
65.22000 213.289
65.39000 236.457
65.56000 284.045
65.73000 547.572
65.90000 1071.394
66.07000 385.991
66.24000 325.712
66.41000 433.811
66.58000 344.227
66.75000 327.807
66.92000 333.768
67.09000 356.062
67.26000 391.275
67.43000 416.503
67.60000 453.213
67.77000 466.375
67.94000 509.426
68.11000 579.578
68.28000 632.942
68.45000 720.640
68.62000 985.383
68.79000 1884.378
68.96000 10382.109
69.13000 54291.422
69.30000 32970.266
69.47000 8549.738
69.64000 1217.561
69.81000 814.552
69.98000 679.416
70.00000 666.407

File: BTO_Mapping_Theta2Theta_25-09-2025_001_54_6-691_-7-431.xy
20.00000 589.228
20.17000 568.998
20.34000 548.695
20.51000 567.725
20.68000 560.161
20.85000 545.866
21.02000 546.546
21.19000 538.680
21.36000 520.692
21.53000 538.652
21.70000 510.390
21.87000 571.484
22.04000 610.915
22.21000 608.674
22.38000 581.872
22.55000 557.993
22.72000 520.343
22.89000 523.149
23.06000 516.168
23.23000 493.986
23.40000 488.991
23.57000 490.397
23.74000 490.796
23.91000 492.154
24.08000 491.614
24.25000 470.703
24.42000 481.920
24.59000 469.282
24.76000 472.381
24.93000 460.127
25.10000 468.057
25.27000 467.674
25.44000 448.136
25.61000 450.038
25.78000 455.589
25.95000 460.750
26.12000 472.988
26.29000 440.839
26.46000 458.626
26.63000 443.678
26.80000 429.509
26.97000 448.838
27.14000 421.719
27.31000 438.724
27.48000 411.199
27.65000 424.829
27.82000 419.813
27.99000 415.131
28.16000 404.063
28.33000 412.138
28.50000 408.044
28.67000 421.348
28.84000 400.063
29.01000 417.760
29.18000 394.392
29.35000 416.384
29.52000 404.315
29.69000 389.192
29.86000 398.768
30.03000 401.513
30.20000 386.314
30.37000 386.454
30.54000 390.736
30.71000 403.469
30.88000 409.128
31.05000 530.764
31.22000 982.299
31.39000 1433.489
31.56000 994.786
31.73000 563.559
31.90000 455.029
32.07000 415.089
32.24000 393.840
32.41000 369.042
32.58000 380.537
32.75000 373.175
32.92000 380.541
33.09000 346.679
33.26000 338.034
33.43000 330.503
33.60000 336.738
33.77000 353.747
33.94000 324.355
34.11000 314.813
34.28000 327.170
34.45000 320.927
34.62000 310.715
34.79000 321.283
34.96000 312.199
35.13000 309.247
35.30000 312.284
35.47000 303.022
35.64000 318.290
35.81000 290.716
35.98000 299.102
36.15000 283.480
36.32000 288.724
36.49000 277.837
36.66000 304.464
36.83000 284.934
37.00000 295.417
37.17000 290.217
37.34000 281.538
37.51000 296.787
37.68000 284.200
37.85000 287.191
38.02000 282.048
38.19000 303.402
38.36000 312.754
38.53000 496.089
38.70000 784.564
38.87000 666.343
39.04000 365.333
39.21000 285.713
39.38000 266.168
39.55000 274.141
39.72000 263.908
39.89000 268.531
40.06000 266.883
40.23000 241.484
40.40000 254.691
40.57000 247.442
40.74000 256.922
40.91000 244.475
41.08000 250.920
41.25000 237.902
41.42000 243.786
41.59000 230.711
41.76000 232.877
41.93000 224.298
42.10000 228.736
42.27000 212.316
42.44000 244.764
42.61000 229.051
42.78000 224.058
42.95000 227.545
43.12000 219.378
43.29000 212.732
43.46000 215.920
43.63000 223.079
43.80000 233.429
43.97000 215.761
44.14000 219.166
44.31000 211.589
44.48000 224.902
44.65000 238.035
44.82000 231.354
44.99000 257.365
45.16000 272.190
45.33000 258.209
45.50000 238.077
45.67000 246.852
45.84000 242.182
46.01000 220.943
46.18000 201.719
46.35000 194.658
46.52000 197.798
46.69000 192.712
46.86000 196.964
47.03000 185.244
47.20000 192.279
47.37000 195.307
47.54000 186.310
47.71000 184.736
47.88000 177.443
48.05000 183.303
48.22000 175.588
48.39000 176.735
48.56000 173.381
48.73000 179.520
48.90000 179.787
49.07000 175.158
49.24000 171.881
49.41000 180.241
49.58000 177.542
49.75000 169.586
49.92000 181.854
50.09000 170.955
50.26000 173.388
50.43000 173.482
50.60000 194.363
50.77000 188.535
50.94000 189.502
51.11000 182.762
51.28000 159.213
51.45000 150.908
51.62000 156.648
51.79000 162.923
51.96000 154.652
52.13000 151.875
52.30000 154.985
52.47000 160.294
52.64000 159.428
52.81000 158.220
52.98000 156.326
53.15000 148.186
53.32000 148.193
53.49000 160.449
53.66000 153.885
53.83000 161.897
54.00000 155.720
54.17000 150.133
54.34000 158.743
54.51000 146.142
54.68000 152.134
54.85000 148.964
55.02000 154.474
55.19000 154.588
55.36000 171.782
55.53000 189.314
55.70000 284.527
55.87000 414.161
56.04000 429.412
56.21000 331.041
56.38000 219.581
56.55000 171.414
56.72000 159.693
56.89000 152.852
57.06000 146.296
57.23000 143.914
57.40000 140.135
57.57000 145.896
57.74000 146.411
57.91000 120.677
58.08000 138.103
58.25000 146.288
58.42000 129.644
58.59000 131.047
58.76000 141.653
58.93000 127.944
59.10000 140.047
59.27000 138.918
59.44000 133.697
59.61000 129.058
59.78000 143.439
59.95000 144.569
60.12000 128.389
60.29000 141.343
60.46000 133.177
60.63000 126.810
60.80000 121.886
60.97000 133.996
61.14000 132.603
61.31000 141.853
61.48000 143.335
61.65000 249.555
61.82000 193.677
61.99000 140.135
62.16000 130.490
62.33000 132.261
62.50000 141.563
62.67000 143.394
62.84000 138.244
63.01000 143.720
63.18000 142.810
63.35000 160.863
63.52000 152.635
63.69000 147.962
63.86000 146.955
64.03000 150.905
64.20000 148.288
64.37000 163.852
64.54000 167.124
64.71000 161.769
64.88000 171.147
65.05000 202.133
65.22000 212.721
65.39000 243.375
65.56000 284.427
65.73000 568.274
65.90000 1058.634
66.07000 378.279
66.24000 324.321
66.41000 430.817
66.58000 376.036
66.75000 316.069
66.92000 337.211
67.09000 356.496
67.26000 381.435
67.43000 417.974
67.60000 429.406
67.77000 469.348
67.94000 515.718
68.11000 534.730
68.28000 621.599
68.45000 717.929
68.62000 1001.781
68.79000 1849.096
68.96000 11161.732
69.13000 54204.227
69.30000 32202.092
69.47000 7946.571
69.64000 1273.176
69.81000 839.215
69.98000 681.807
70.00000 656.067

File: BTO_Mapping_Theta2Theta_25-09-2025_001_55_13-383_-14-863.xy
20.00000 558.027
20.17000 535.286
20.34000 535.995
20.51000 558.455
20.68000 547.794
20.85000 534.737
21.02000 543.415
21.19000 546.002
21.36000 562.910
21.53000 558.645
21.70000 537.081
21.87000 577.822
22.04000 621.611
22.21000 620.705
22.38000 583.308
22.55000 545.967
22.72000 511.977
22.89000 524.468
23.06000 529.135
23.23000 511.347
23.40000 502.692
23.57000 494.969
23.74000 469.765
23.91000 497.806
24.08000 474.256
24.25000 487.015
24.42000 471.835
24.59000 481.166
24.76000 450.983
24.93000 464.263
25.10000 468.807
25.27000 448.900
25.44000 450.985
25.61000 446.735
25.78000 460.273
25.95000 436.241
26.12000 452.153
26.29000 445.309
26.46000 433.585
26.63000 448.462
26.80000 446.403
26.97000 435.143
27.14000 430.862
27.31000 431.671
27.48000 433.045
27.65000 423.190
27.82000 430.016
27.99000 421.118
28.16000 408.259
28.33000 414.425
28.50000 422.445
28.67000 402.557
28.84000 425.355
29.01000 407.967
29.18000 403.765
29.35000 405.820
29.52000 391.612
29.69000 400.568
29.86000 421.602
30.03000 397.365
30.20000 402.568
30.37000 399.173
30.54000 409.202
30.71000 383.859
30.88000 438.118
31.05000 501.534
31.22000 863.105
31.39000 1325.404
31.56000 938.665
31.73000 550.134
31.90000 442.800
32.07000 413.685
32.24000 378.723
32.41000 371.592
32.58000 364.252
32.75000 354.787
32.92000 365.534
33.09000 348.852
33.26000 340.086
33.43000 346.124
33.60000 333.076
33.77000 327.311
33.94000 320.800
34.11000 332.358
34.28000 334.722
34.45000 328.946
34.62000 324.556
34.79000 319.499
34.96000 329.478
35.13000 312.381
35.30000 295.730
35.47000 297.767
35.64000 300.580
35.81000 304.526
35.98000 310.991
36.15000 281.738
36.32000 296.284
36.49000 283.980
36.66000 281.727
36.83000 283.220
37.00000 282.050
37.17000 293.804
37.34000 291.127
37.51000 281.796
37.68000 292.679
37.85000 288.525
38.02000 291.231
38.19000 293.002
38.36000 332.467
38.53000 482.910
38.70000 785.048
38.87000 637.859
39.04000 362.729
39.21000 292.418
39.38000 264.255
39.55000 262.697
39.72000 258.451
39.89000 260.751
40.06000 254.607
40.23000 261.621
40.40000 251.599
40.57000 241.503
40.74000 242.364
40.91000 233.835
41.08000 231.516
41.25000 229.758
41.42000 252.831
41.59000 236.194
41.76000 225.515
41.93000 236.845
42.10000 236.557
42.27000 228.663
42.44000 237.079
42.61000 213.041
42.78000 222.241
42.95000 223.394
43.12000 210.412
43.29000 215.598
43.46000 219.383
43.63000 229.759
43.80000 220.064
43.97000 217.711
44.14000 215.744
44.31000 215.581
44.48000 223.276
44.65000 212.191
44.82000 243.450
44.99000 239.954
45.16000 261.684
45.33000 263.599
45.50000 247.983
45.67000 234.689
45.84000 235.129
46.01000 219.638
46.18000 201.641
46.35000 196.244
46.52000 199.007
46.69000 198.735
46.86000 201.515
47.03000 196.742
47.20000 187.505
47.37000 182.018
47.54000 188.433
47.71000 182.251
47.88000 169.282
48.05000 183.036
48.22000 181.479
48.39000 175.430
48.56000 178.418
48.73000 180.483
48.90000 180.006
49.07000 175.600
49.24000 170.769
49.41000 168.066
49.58000 179.450
49.75000 173.255
49.92000 163.694
50.09000 169.322
50.26000 173.771
50.43000 176.413
50.60000 191.777
50.77000 201.754
50.94000 186.968
51.11000 169.310
51.28000 163.485
51.45000 162.107
51.62000 151.442
51.79000 155.588
51.96000 163.210
52.13000 162.192
52.30000 167.178
52.47000 156.157
52.64000 149.243
52.81000 166.812
52.98000 149.824
53.15000 150.684
53.32000 154.586
53.49000 157.546
53.66000 158.751
53.83000 152.712
54.00000 153.298
54.17000 148.158
54.34000 160.410
54.51000 147.765
54.68000 162.039
54.85000 155.200
55.02000 158.261
55.19000 157.088
55.36000 164.955
55.53000 183.977
55.70000 259.251
55.87000 407.420
56.04000 465.638
56.21000 331.414
56.38000 218.391
56.55000 162.604
56.72000 144.158
56.89000 148.705
57.06000 148.897
57.23000 151.497
57.40000 125.369
57.57000 142.331
57.74000 141.762
57.91000 143.645
58.08000 135.199
58.25000 144.218
58.42000 132.599
58.59000 135.819
58.76000 136.097
58.93000 129.559
59.10000 129.956
59.27000 133.645
59.44000 133.998
59.61000 130.804
59.78000 128.421
59.95000 127.515
60.12000 121.545
60.29000 133.045
60.46000 144.584
60.63000 137.817
60.80000 122.676
60.97000 138.847
61.14000 143.882
61.31000 137.909
61.48000 142.939
61.65000 268.242
61.82000 189.724
61.99000 138.647
62.16000 143.635
62.33000 132.987
62.50000 142.409
62.67000 133.789
62.84000 140.057
63.01000 143.113
63.18000 130.640
63.35000 140.710
63.52000 149.233
63.69000 139.403
63.86000 140.183
64.03000 149.474
64.20000 158.513
64.37000 154.447
64.54000 163.336
64.71000 178.498
64.88000 177.655
65.05000 179.824
65.22000 203.309
65.39000 253.170
65.56000 276.782
65.73000 555.782
65.90000 1066.774
66.07000 389.523
66.24000 316.321
66.41000 453.604
66.58000 342.783
66.75000 326.766
66.92000 333.577
67.09000 372.391
67.26000 391.762
67.43000 406.338
67.60000 434.854
67.77000 462.328
67.94000 507.561
68.11000 553.245
68.28000 611.366
68.45000 734.930
68.62000 1015.692
68.79000 1867.023
68.96000 10796.693
69.13000 53532.348
69.30000 31972.777
69.47000 8056.926
69.64000 1214.412
69.81000 807.649
69.98000 663.533
70.00000 653.138