Folder: Master-Thesis/XRD/XRD/25-09-2025/XY Data (part 2)

File: BTO_Mapping_Theta2Theta_25-09-2025_001_07_18-271_8-135.xy
20.00000 544.875
20.17000 584.300
20.34000 530.696
20.51000 558.525
20.68000 542.170
20.85000 555.197
21.02000 538.341
21.19000 519.562
21.36000 550.356
21.53000 542.451
21.70000 545.762
21.87000 545.026
22.04000 581.231
22.21000 581.871
22.38000 600.736
22.55000 543.245
22.72000 504.232
22.89000 506.274
23.06000 514.740
23.23000 488.097
23.40000 497.306
23.57000 501.218
23.74000 490.789
23.91000 499.606
24.08000 480.459
24.25000 489.350
24.42000 482.715
24.59000 472.530
24.76000 478.131
24.93000 470.402
25.10000 472.399
25.27000 463.661
25.44000 447.009
25.61000 459.481
25.78000 459.763
25.95000 453.483
26.12000 448.998
26.29000 455.286
26.46000 447.077
26.63000 451.384
26.80000 436.093
26.97000 436.112
27.14000 438.490
27.31000 441.022
27.48000 415.511
27.65000 419.382
27.82000 421.504
27.99000 420.872
28.16000 406.911
28.33000 421.072
28.50000 405.009
28.67000 410.137
28.84000 412.061
29.01000 403.496
29.18000 424.860
29.35000 399.360
29.52000 380.368
29.69000 409.062
29.86000 397.784
30.03000 408.895
30.20000 417.934
30.37000 406.165
30.54000 415.422
30.71000 416.697
30.88000 417.217
31.05000 505.668
31.22000 848.022
31.39000 1319.422
31.56000 1037.107
31.73000 604.300
31.90000 477.951
32.07000 413.942
32.24000 389.038
32.41000 375.473
32.58000 369.390
32.75000 354.050
32.92000 380.314
33.09000 345.095
33.26000 336.686
33.43000 345.828
33.60000 329.495
33.77000 329.095
33.94000 315.412
34.11000 334.993
34.28000 320.252
34.45000 334.378
34.62000 327.995
34.79000 319.172
34.96000 322.590
35.13000 320.183
35.30000 312.692
35.47000 309.016
35.64000 308.187
35.81000 316.531
35.98000 300.229
36.15000 300.039
36.32000 297.273
36.49000 296.637
36.66000 288.369
36.83000 283.354
37.00000 308.538
37.17000 301.056
37.34000 292.050
37.51000 286.778
37.68000 300.258
37.85000 280.000
38.02000 279.224
38.19000 271.720
38.36000 297.806
38.53000 442.032
38.70000 708.643
38.87000 587.262
39.04000 321.882
39.21000 283.095
39.38000 271.031
39.55000 250.656
39.72000 267.231
39.89000 263.356
40.06000 256.337
40.23000 256.013
40.40000 252.505
40.57000 245.659
40.74000 237.519
40.91000 231.056
41.08000 240.857
41.25000 240.599
41.42000 246.906
41.59000 226.110
41.76000 218.738
41.93000 231.293
42.10000 230.257
42.27000 228.115
42.44000 235.390
42.61000 237.893
42.78000 218.653
42.95000 215.491
43.12000 223.364
43.29000 227.206
43.46000 211.701
43.63000 224.750
43.80000 217.178
43.97000 217.968
44.14000 214.453
44.31000 215.336
44.48000 214.487
44.65000 214.169
44.82000 220.455
44.99000 235.157
45.16000 262.379
45.33000 263.077
45.50000 249.244
45.67000 239.212
45.84000 227.614
46.01000 220.581
46.18000 210.994
46.35000 211.813
46.52000 188.068
46.69000 189.418
46.86000 202.595
47.03000 191.990
47.20000 179.250
47.37000 185.980
47.54000 191.319
47.71000 192.117
47.88000 191.975
48.05000 172.038
48.22000 167.134
48.39000 185.081
48.56000 177.064
48.73000 179.937
48.90000 182.116
49.07000 180.188
49.24000 178.366
49.41000 175.316
49.58000 171.667
49.75000 155.490
49.92000 166.781
50.09000 169.788
50.26000 171.252
50.43000 170.961
50.60000 189.435
50.77000 191.232
50.94000 187.331
51.11000 166.902
51.28000 163.385
51.45000 162.279
51.62000 163.721
51.79000 159.760
51.96000 160.104
52.13000 166.280
52.30000 160.127
52.47000 146.365
52.64000 153.291
52.81000 159.525
52.98000 159.906
53.15000 157.550
53.32000 163.162
53.49000 154.849
53.66000 150.648
53.83000 148.312
54.00000 157.905
54.17000 175.138
54.34000 151.703
54.51000 155.277
54.68000 147.752
54.85000 157.946
55.02000 150.493
55.19000 151.293
55.36000 159.838
55.53000 187.356
55.70000 224.366
55.87000 376.208
56.04000 408.357
56.21000 302.006
56.38000 198.370
56.55000 168.696
56.72000 140.783
56.89000 150.914
57.06000 136.080
57.23000 142.288
57.40000 141.181
57.57000 142.211
57.74000 135.793
57.91000 131.521
58.08000 137.468
58.25000 140.269
58.42000 138.070
58.59000 136.338
58.76000 128.350
58.93000 138.864
59.10000 141.057
59.27000 133.716
59.44000 129.162
59.61000 137.989
59.78000 129.304
59.95000 131.860
60.12000 125.948
60.29000 139.540
60.46000 122.775
60.63000 132.714
60.80000 131.584
60.97000 135.707
61.14000 133.024
61.31000 134.365
61.48000 143.909
61.65000 257.512
61.82000 203.897
61.99000 135.088
62.16000 139.621
62.33000 139.464
62.50000 140.513
62.67000 146.934
62.84000 139.206
63.01000 136.411
63.18000 140.172
63.35000 160.539
63.52000 165.150
63.69000 143.303
63.86000 152.210
64.03000 158.822
64.20000 162.338
64.37000 157.407
64.54000 166.307
64.71000 172.463
64.88000 175.103
65.05000 184.610
65.22000 210.723
65.39000 243.321
65.56000 279.367
65.73000 578.210
65.90000 1047.507
66.07000 386.010
66.24000 313.363
66.41000 460.478
66.58000 329.250
66.75000 320.699
66.92000 338.565
67.09000 367.900
67.26000 376.021
67.43000 399.046
67.60000 439.539
67.77000 460.858
67.94000 533.097
68.11000 561.074
68.28000 633.550
68.45000 737.694
68.62000 1002.999
68.79000 1868.786
68.96000 10228.795
69.13000 53462.730
69.30000 32265.959
69.47000 8277.870
69.64000 1246.710
69.81000 862.959
69.98000 680.699
70.00000 684.606

File: BTO_Mapping_Theta2Theta_25-09-2025_001_09_36-542_16-269.xy
20.00000 569.587
20.17000 559.261
20.34000 555.065
20.51000 551.545
20.68000 545.607
20.85000 550.119
21.02000 529.965
21.19000 551.311
21.36000 536.526
21.53000 531.294
21.70000 533.300
21.87000 562.899
22.04000 565.282
22.21000 601.847
22.38000 565.391
22.55000 521.470
22.72000 486.954
22.89000 487.184
23.06000 502.925
23.23000 493.140
23.40000 502.616
23.57000 493.197
23.74000 490.389
23.91000 488.147
24.08000 470.717
24.25000 479.558
24.42000 488.046
24.59000 490.203
24.76000 468.288
24.93000 447.812
25.10000 465.828
25.27000 471.799
25.44000 458.384
25.61000 448.023
25.78000 450.680
25.95000 454.172
26.12000 450.651
26.29000 449.310
26.46000 453.003
26.63000 435.283
26.80000 435.097
26.97000 437.083
27.14000 447.135
27.31000 446.091
27.48000 447.693
27.65000 425.264
27.82000 417.349
27.99000 419.122
28.16000 412.723
28.33000 423.977
28.50000 422.513
28.67000 425.658
28.84000 430.448
29.01000 413.020
29.18000 414.814
29.35000 414.196
29.52000 409.163
29.69000 415.689
29.86000 422.143
30.03000 403.606
30.20000 408.407
30.37000 407.714
30.54000 404.070
30.71000 396.758
30.88000 429.027
31.05000 483.302
31.22000 743.862
31.39000 1057.284
31.56000 890.335
31.73000 559.456
31.90000 427.350
32.07000 421.174
32.24000 400.668
32.41000 400.093
32.58000 370.955
32.75000 372.128
32.92000 364.563
33.09000 340.189
33.26000 341.700
33.43000 322.434
33.60000 331.991
33.77000 323.942
33.94000 336.732
34.11000 338.123
34.28000 315.359
34.45000 328.677
34.62000 322.529
34.79000 316.193
34.96000 305.921
35.13000 299.694
35.30000 311.860
35.47000 310.459
35.64000 297.542
35.81000 294.725
35.98000 289.155
36.15000 311.394
36.32000 299.243
36.49000 306.980
36.66000 292.140
36.83000 290.337
37.00000 288.542
37.17000 288.114
37.34000 291.264
37.51000 285.415
37.68000 277.916
37.85000 287.381
38.02000 282.677
38.19000 282.313
38.36000 323.677
38.53000 400.318
38.70000 563.369
38.87000 437.492
39.04000 305.375
39.21000 275.064
39.38000 275.963
39.55000 253.088
39.72000 264.373
39.89000 267.337
40.06000 251.455
40.23000 249.226
40.40000 262.697
40.57000 237.978
40.74000 251.102
40.91000 235.386
41.08000 242.032
41.25000 247.788
41.42000 236.926
41.59000 237.493
41.76000 232.462
41.93000 237.127
42.10000 219.926
42.27000 237.853
42.44000 220.898
42.61000 235.647
42.78000 214.615
42.95000 224.230
43.12000 210.914
43.29000 227.109
43.46000 224.207
43.63000 221.752
43.80000 224.094
43.97000 223.487
44.14000 222.036
44.31000 210.085
44.48000 213.431
44.65000 204.751
44.82000 225.457
44.99000 237.537
45.16000 242.866
45.33000 253.014
45.50000 248.612
45.67000 220.604
45.84000 225.026
46.01000 207.527
46.18000 209.399
46.35000 209.730
46.52000 196.592
46.69000 202.008
46.86000 199.953
47.03000 185.762
47.20000 195.614
47.37000 189.688
47.54000 181.594
47.71000 193.029
47.88000 176.899
48.05000 182.262
48.22000 188.238
48.39000 175.200
48.56000 187.873
48.73000 178.355
48.90000 174.768
49.07000 173.662
49.24000 184.195
49.41000 178.962
49.58000 179.663
49.75000 176.361
49.92000 174.096
50.09000 166.070
50.26000 179.436
50.43000 174.241
50.60000 186.575
50.77000 184.643
50.94000 180.981
51.11000 170.590
51.28000 163.682
51.45000 155.565
51.62000 170.344
51.79000 157.381
51.96000 164.596
52.13000 163.416
52.30000 157.963
52.47000 170.045
52.64000 149.477
52.81000 155.446
52.98000 164.368
53.15000 161.926
53.32000 158.527
53.49000 158.093
53.66000 153.174
53.83000 149.983
54.00000 149.108
54.17000 160.749
54.34000 148.532
54.51000 160.582
54.68000 150.680
54.85000 153.051
55.02000 146.245
55.19000 152.137
55.36000 160.213
55.53000 168.322
55.70000 222.604
55.87000 256.744
56.04000 276.303
56.21000 226.276
56.38000 180.749
56.55000 158.294
56.72000 144.414
56.89000 145.102
57.06000 147.377
57.23000 144.477
57.40000 139.918
57.57000 143.099
57.74000 143.577
57.91000 135.486
58.08000 139.549
58.25000 135.776
58.42000 132.391
58.59000 134.018
58.76000 136.532
58.93000 148.106
59.10000 140.739
59.27000 131.497
59.44000 127.173
59.61000 130.341
59.78000 134.799
59.95000 137.703
60.12000 120.382
60.29000 137.968
60.46000 134.961
60.63000 136.437
60.80000 135.514
60.97000 143.365
61.14000 135.213
61.31000 132.056
61.48000 147.542
61.65000 252.891
61.82000 205.476
61.99000 146.327
62.16000 144.639
62.33000 158.910
62.50000 137.945
62.67000 141.507
62.84000 148.730
63.01000 149.237
63.18000 153.358
63.35000 146.831
63.52000 152.964
63.69000 148.323
63.86000 155.709
64.03000 152.028
64.20000 164.907
64.37000 166.271
64.54000 164.398
64.71000 173.003
64.88000 171.189
65.05000 185.144
65.22000 196.136
65.39000 229.631
65.56000 258.387
65.73000 509.489
65.90000 1024.353
66.07000 401.200
66.24000 322.258
66.41000 436.205
66.58000 371.153
66.75000 324.342
66.92000 342.676
67.09000 369.755
67.26000 371.955
67.43000 412.685
67.60000 459.116
67.77000 479.847
67.94000 509.789
68.11000 598.235
68.28000 618.975
68.45000 722.023
68.62000 991.789
68.79000 1811.370
68.96000 8761.379
69.13000 53862.762
69.30000 33658.133
69.47000 9435.729
69.64000 1289.577
69.81000 837.461
69.98000 674.103
70.00000 668.488

File: BTO_Mapping_Theta2Theta_25-09-2025_001_10_6-691_7-431.xy
20.00000 565.129
20.17000 572.606
20.34000 573.214
20.51000 537.062
20.68000 547.591
20.85000 536.490
21.02000 533.239
21.19000 571.128
21.36000 580.545
21.53000 569.676
21.70000 538.834
21.87000 566.969
22.04000 591.901
22.21000 602.169
22.38000 588.414
22.55000 545.533
22.72000 524.707
22.89000 493.767
23.06000 504.789
23.23000 518.455
23.40000 517.580
23.57000 497.781
23.74000 469.696
23.91000 489.993
24.08000 481.747
24.25000 483.192
24.42000 471.359
24.59000 475.734
24.76000 467.217
24.93000 466.134
25.10000 461.420
25.27000 479.292
25.44000 453.232
25.61000 457.436
25.78000 447.175
25.95000 451.988
26.12000 465.725
26.29000 439.702
26.46000 438.542
26.63000 445.732
26.80000 456.629
26.97000 446.511
27.14000 439.936
27.31000 429.703
27.48000 440.417
27.65000 428.130
27.82000 422.937
27.99000 404.083
28.16000 422.204
28.33000 416.754
28.50000 421.587
28.67000 395.545
28.84000 400.673
29.01000 406.924
29.18000 413.976
29.35000 422.378
29.52000 406.713
29.69000 398.236
29.86000 388.060
30.03000 410.018
30.20000 390.275
30.37000 405.212
30.54000 427.937
30.71000 418.284
30.88000 424.454
31.05000 505.704
31.22000 856.007
31.39000 1281.738
31.56000 949.889
31.73000 561.809
31.90000 441.440
32.07000 395.600
32.24000 391.492
32.41000 382.407
32.58000 370.849
32.75000 358.220
32.92000 362.338
33.09000 345.030
33.26000 326.690
33.43000 348.679
33.60000 330.704
33.77000 310.591
33.94000 337.611
34.11000 308.886
34.28000 320.900
34.45000 328.638
34.62000 325.001
34.79000 311.089
34.96000 317.447
35.13000 301.856
35.30000 320.859
35.47000 316.561
35.64000 307.599
35.81000 297.857
35.98000 295.800
36.15000 295.372
36.32000 290.642
36.49000 299.579
36.66000 294.064
36.83000 283.807
37.00000 286.949
37.17000 279.050
37.34000 292.977
37.51000 278.113
37.68000 298.973
37.85000 295.817
38.02000 284.573
38.19000 271.302
38.36000 315.158
38.53000 472.975
38.70000 784.184
38.87000 648.996
39.04000 346.367
39.21000 272.208
39.38000 268.161
39.55000 269.432
39.72000 255.009
39.89000 260.987
40.06000 231.003
40.23000 263.033
40.40000 252.385
40.57000 254.065
40.74000 249.187
40.91000 252.265
41.08000 232.344
41.25000 237.135
41.42000 240.500
41.59000 256.440
41.76000 240.787
41.93000 241.856
42.10000 232.489
42.27000 220.270
42.44000 228.377
42.61000 238.195
42.78000 229.247
42.95000 236.980
43.12000 222.097
43.29000 218.596
43.46000 214.473
43.63000 220.041
43.80000 221.916
43.97000 211.202
44.14000 214.369
44.31000 211.918
44.48000 209.975
44.65000 225.942
44.82000 230.885
44.99000 254.128
45.16000 248.406
45.33000 247.644
45.50000 250.379
45.67000 239.174
45.84000 233.805
46.01000 217.054
46.18000 218.330
46.35000 195.026
46.52000 202.647
46.69000 198.111
46.86000 193.194
47.03000 200.106
47.20000 195.882
47.37000 184.200
47.54000 189.084
47.71000 201.113
47.88000 155.244
48.05000 188.646
48.22000 187.409
48.39000 196.824
48.56000 179.151
48.73000 181.653
48.90000 177.502
49.07000 186.661
49.24000 169.926
49.41000 178.990
49.58000 170.392
49.75000 160.911
49.92000 161.691
50.09000 168.764
50.26000 174.858
50.43000 188.298
50.60000 183.515
50.77000 186.104
50.94000 185.494
51.11000 178.732
51.28000 180.230
51.45000 157.894
51.62000 169.160
51.79000 162.654
51.96000 154.359
52.13000 162.998
52.30000 155.151
52.47000 153.883
52.64000 160.682
52.81000 153.377
52.98000 164.784
53.15000 156.855
53.32000 157.528
53.49000 159.265
53.66000 156.798
53.83000 150.923
54.00000 141.025
54.17000 136.617
54.34000 168.882
54.51000 155.654
54.68000 144.322
54.85000 160.487
55.02000 156.189
55.19000 156.900
55.36000 165.414
55.53000 165.209
55.70000 272.142
55.87000 410.159
56.04000 455.458
56.21000 322.256
56.38000 214.751
56.55000 163.993
56.72000 146.402
56.89000 147.422
57.06000 152.938
57.23000 137.143
57.40000 131.996
57.57000 135.867
57.74000 146.497
57.91000 146.185
58.08000 138.348
58.25000 139.419
58.42000 135.569
58.59000 140.226
58.76000 134.956
58.93000 137.692
59.10000 139.831
59.27000 130.448
59.44000 131.697
59.61000 126.464
59.78000 134.860
59.95000 136.519
60.12000 131.668
60.29000 128.130
60.46000 120.432
60.63000 133.898
60.80000 129.382
60.97000 128.241
61.14000 133.497
61.31000 133.967
61.48000 146.550
61.65000 257.284
61.82000 195.004
61.99000 138.688
62.16000 140.359
62.33000 149.447
62.50000 144.226
62.67000 138.784
62.84000 145.967
63.01000 146.070
63.18000 138.713
63.35000 156.502
63.52000 145.052
63.69000 155.518
63.86000 160.105
64.03000 161.949
64.20000 161.568
64.37000 159.279
64.54000 166.132
64.71000 173.469
64.88000 172.939
65.05000 182.728
65.22000 205.999
65.39000 231.803
65.56000 278.521
65.73000 579.603
65.90000 1040.487
66.07000 380.974
66.24000 316.815
66.41000 455.922
66.58000 362.939
66.75000 323.574
66.92000 336.212
67.09000 350.683
67.26000 384.982
67.43000 391.068
67.60000 432.417
67.77000 472.241
67.94000 509.762
68.11000 561.544
68.28000 626.594
68.45000 729.194
68.62000 1011.456
68.79000 1895.264
68.96000 10989.010
69.13000 53822.801
69.30000 32168.865
69.47000 7942.750
69.64000 1250.150
69.81000 822.246
69.98000 686.387
70.00000 657.434

File: BTO_Mapping_Theta2Theta_25-09-2025_001_15_6-180_19-021.xy
20.00000 560.956
20.17000 551.472
20.34000 553.157
20.51000 539.240
20.68000 541.675
20.85000 536.980
21.02000 536.300
21.19000 550.652
21.36000 524.812
21.53000 546.509
21.70000 546.392
21.87000 566.453
22.04000 595.891
22.21000 600.881
22.38000 604.809
22.55000 547.881
22.72000 518.128
22.89000 510.800
23.06000 498.676
23.23000 503.914
23.40000 488.831
23.57000 494.746
23.74000 471.735
23.91000 491.469
24.08000 485.669
24.25000 479.188
24.42000 488.622
24.59000 463.898
24.76000 483.424
24.93000 467.091
25.10000 477.510
25.27000 473.284
25.44000 476.019
25.61000 456.371
25.78000 467.655
25.95000 455.526
26.12000 457.911
26.29000 447.295
26.46000 438.025
26.63000 451.991
26.80000 443.791
26.97000 440.640
27.14000 438.558
27.31000 441.838
27.48000 427.982
27.65000 409.643
27.82000 423.874
27.99000 431.056
28.16000 428.580
28.33000 419.421
28.50000 415.106
28.67000 418.625
28.84000 402.609
29.01000 397.984
29.18000 406.893
29.35000 405.404
29.52000 403.457
29.69000 391.459
29.86000 404.155
30.03000 413.927
30.20000 408.236
30.37000 403.905
30.54000 392.212
30.71000 396.117
30.88000 412.917
31.05000 508.467
31.22000 820.483
31.39000 1239.820
31.56000 961.921
31.73000 554.615
31.90000 438.370
32.07000 409.060
32.24000 391.821
32.41000 377.711
32.58000 355.967
32.75000 361.333
32.92000 377.339
33.09000 349.260
33.26000 343.139
33.43000 344.811
33.60000 335.021
33.77000 319.956
33.94000 322.140
34.11000 335.907
34.28000 320.204
34.45000 325.154
34.62000 330.599
34.79000 315.122
34.96000 323.053
35.13000 310.655
35.30000 312.156
35.47000 318.415
35.64000 312.707
35.81000 283.705
35.98000 300.154
36.15000 274.895
36.32000 298.730
36.49000 286.930
36.66000 295.953
36.83000 288.140
37.00000 285.588
37.17000 279.340
37.34000 288.017
37.51000 279.461
37.68000 279.416
37.85000 280.015
38.02000 287.739
38.19000 283.428
38.36000 301.285
38.53000 431.363
38.70000 744.039
38.87000 633.653
39.04000 335.958
39.21000 273.203
39.38000 261.124
39.55000 254.652
39.72000 267.770
39.89000 263.009
40.06000 259.611
40.23000 248.088
40.40000 257.451
40.57000 258.726
40.74000 232.455
40.91000 250.401
41.08000 239.427
41.25000 236.562
41.42000 233.040
41.59000 236.919
41.76000 235.948
41.93000 239.590
42.10000 237.793
42.27000 237.720
42.44000 227.509
42.61000 222.549
42.78000 231.739
42.95000 224.561
43.12000 218.638
43.29000 221.383
43.46000 219.351
43.63000 231.966
43.80000 218.072
43.97000 214.470
44.14000 226.423
44.31000 214.094
44.48000 217.249
44.65000 229.970
44.82000 240.966
44.99000 243.721
45.16000 259.093
45.33000 255.188
45.50000 249.030
45.67000 235.379
45.84000 236.141
46.01000 229.551
46.18000 214.953
46.35000 203.870
46.52000 198.367
46.69000 174.464
46.86000 199.080
47.03000 197.553
47.20000 189.446
47.37000 189.760
47.54000 179.689
47.71000 185.112
47.88000 192.904
48.05000 190.272
48.22000 171.531
48.39000 172.399
48.56000 188.412
48.73000 170.690
48.90000 182.408
49.07000 176.046
49.24000 168.796
49.41000 180.768
49.58000 176.111
49.75000 175.096
49.92000 175.328
50.09000 168.206
50.26000 177.360
50.43000 179.952
50.60000 190.749
50.77000 186.557
50.94000 189.008
51.11000 176.621
51.28000 175.286
51.45000 154.361
51.62000 165.554
51.79000 157.302
51.96000 170.810
52.13000 164.907
52.30000 160.513
52.47000 149.458
52.64000 146.340
52.81000 163.226
52.98000 153.474
53.15000 158.124
53.32000 157.912
53.49000 158.796
53.66000 163.013
53.83000 155.601
54.00000 149.113
54.17000 150.009
54.34000 145.559
54.51000 148.625
54.68000 152.247
54.85000 137.795
55.02000 148.258
55.19000 158.273
55.36000 160.983
55.53000 180.348
55.70000 241.634
55.87000 397.913
56.04000 454.784
56.21000 310.545
56.38000 217.704
56.55000 169.137
56.72000 157.805
56.89000 149.509
57.06000 143.080
57.23000 138.142
57.40000 141.385
57.57000 134.337
57.74000 149.405
57.91000 139.320
58.08000 135.798
58.25000 141.169
58.42000 142.807
58.59000 139.528
58.76000 127.281
58.93000 129.009
59.10000 142.126
59.27000 142.752
59.44000 129.233
59.61000 134.637
59.78000 132.184
59.95000 128.890
60.12000 132.463
60.29000 143.824
60.46000 139.251
60.63000 121.199
60.80000 131.844
60.97000 135.771
61.14000 132.673
61.31000 136.885
61.48000 145.148
61.65000 257.915
61.82000 192.677
61.99000 138.331
62.16000 129.989
62.33000 147.361
62.50000 142.705
62.67000 144.639
62.84000 138.709
63.01000 152.939
63.18000 143.748
63.35000 148.768
63.52000 140.609
63.69000 158.626
63.86000 145.965
64.03000 165.365
64.20000 150.320
64.37000 161.504
64.54000 171.130
64.71000 168.842
64.88000 187.613
65.05000 189.859
65.22000 209.685
65.39000 220.580
65.56000 279.257
65.73000 567.460
65.90000 1050.516
66.07000 362.903
66.24000 308.088
66.41000 445.448
66.58000 371.037
66.75000 314.732
66.92000 352.568
67.09000 346.046
67.26000 394.674
67.43000 411.233
67.60000 442.267
67.77000 463.083
67.94000 501.804
68.11000 541.691
68.28000 621.824
68.45000 720.802
68.62000 1004.807
68.79000 1911.302
68.96000 10965.509
69.13000 53653.777
69.30000 32016.938
69.47000 8006.589
69.64000 1265.454
69.81000 835.279
69.98000 657.508
70.00000 657.883

File: BTO_Mapping_Theta2Theta_25-09-2025_001_16_9-271_28-532.xy
20.00000 570.247
20.17000 550.706
20.34000 555.725
20.51000 558.574
20.68000 527.928
20.85000 528.278
21.02000 527.738
21.19000 556.729
21.36000 529.905
21.53000 528.838
21.70000 549.919
21.87000 564.938
22.04000 601.860
22.21000 597.477
22.38000 595.880
22.55000 539.947
22.72000 538.927
22.89000 485.289
23.06000 518.541
23.23000 499.319
23.40000 518.936
23.57000 506.510
23.74000 483.065
23.91000 486.294
24.08000 486.303
24.25000 479.484
24.42000 473.268
24.59000 456.753
24.76000 472.931
24.93000 485.141
25.10000 455.479
25.27000 474.967
25.44000 454.629
25.61000 463.674
25.78000 454.716
25.95000 453.276
26.12000 454.372
26.29000 453.653
26.46000 459.277
26.63000 443.916
26.80000 449.343
26.97000 425.959
27.14000 425.670
27.31000 437.677
27.48000 429.998
27.65000 421.524
27.82000 425.464
27.99000 413.048
28.16000 419.955
28.33000 420.410
28.50000 392.769
28.67000 421.303
28.84000 409.728
29.01000 403.478
29.18000 407.698
29.35000 409.580
29.52000 405.817
29.69000 404.098
29.86000 399.456
30.03000 421.542
30.20000 412.121
30.37000 407.452
30.54000 396.272
30.71000 401.464
30.88000 437.459
31.05000 505.514
31.22000 842.164
31.39000 1327.583
31.56000 1048.013
31.73000 613.351
31.90000 448.468
32.07000 396.717
32.24000 403.471
32.41000 391.026
32.58000 390.249
32.75000 366.378
32.92000 364.735
33.09000 338.501
33.26000 344.820
33.43000 323.625
33.60000 332.736
33.77000 321.600
33.94000 330.233
34.11000 312.156
34.28000 313.869
34.45000 325.277
34.62000 313.887
34.79000 310.415
34.96000 312.500
35.13000 306.604
35.30000 299.357
35.47000 315.130
35.64000 309.769
35.81000 319.505
35.98000 302.060
36.15000 311.489
36.32000 300.186
36.49000 297.703
36.66000 287.651
36.83000 284.884
37.00000 290.980
37.17000 277.368
37.34000 300.317
37.51000 289.162
37.68000 286.993
37.85000 288.067
38.02000 283.627
38.19000 290.007
38.36000 314.614
38.53000 441.439
38.70000 694.069
38.87000 568.411
39.04000 333.604
39.21000 273.088
39.38000 266.048
39.55000 266.924
39.72000 261.456
39.89000 251.722
40.06000 247.351
40.23000 253.869
40.40000 248.301
40.57000 247.832
40.74000 247.114
40.91000 244.341
41.08000 245.993
41.25000 236.871
41.42000 237.748
41.59000 231.923
41.76000 231.270
41.93000 243.889
42.10000 236.285
42.27000 229.223
42.44000 236.211
42.61000 224.209
42.78000 225.585
42.95000 225.984
43.12000 223.899
43.29000 215.268
43.46000 204.807
43.63000 215.067
43.80000 215.646
43.97000 211.516
44.14000 217.066
44.31000 225.822
44.48000 218.551
44.65000 213.971
44.82000 229.487
44.99000 235.310
45.16000 247.631
45.33000 251.245
45.50000 251.577
45.67000 235.822
45.84000 228.754
46.01000 225.284
46.18000 208.338
46.35000 199.466
46.52000 219.138
46.69000 203.776
46.86000 194.298
47.03000 189.983
47.20000 205.018
47.37000 184.058
47.54000 195.382
47.71000 183.438
47.88000 188.364
48.05000 167.337
48.22000 180.244
48.39000 186.115
48.56000 179.308
48.73000 181.248
48.90000 168.774
49.07000 176.788
49.24000 168.512
49.41000 173.960
49.58000 168.214
49.75000 171.356
49.92000 163.906
50.09000 167.925
50.26000 181.060
50.43000 176.675
50.60000 174.416
50.77000 198.642
50.94000 186.609
51.11000 174.353
51.28000 170.489
51.45000 154.537
51.62000 161.523
51.79000 158.703
51.96000 155.000
52.13000 157.701
52.30000 158.672
52.47000 169.033
52.64000 153.571
52.81000 155.496
52.98000 155.396
53.15000 157.402
53.32000 155.675
53.49000 151.670
53.66000 152.874
53.83000 147.381
54.00000 150.951
54.17000 148.957
54.34000 144.486
54.51000 153.989
54.68000 150.652
54.85000 146.994
55.02000 156.618
55.19000 162.178
55.36000 161.430
55.53000 176.996
55.70000 232.562
55.87000 348.959
56.04000 371.457
56.21000 279.902
56.38000 189.389
56.55000 164.027
56.72000 152.285
56.89000 151.772
57.06000 141.205
57.23000 144.990
57.40000 131.727
57.57000 147.260
57.74000 139.369
57.91000 143.270
58.08000 138.223
58.25000 133.406
58.42000 143.534
58.59000 129.813
58.76000 140.433
58.93000 132.262
59.10000 134.633
59.27000 140.269
59.44000 136.165
59.61000 133.845
59.78000 123.773
59.95000 120.580
60.12000 140.322
60.29000 131.162
60.46000 136.572
60.63000 136.452
60.80000 136.689
60.97000 141.882
61.14000 135.639
61.31000 136.552
61.48000 148.841
61.65000 250.045
61.82000 203.628
61.99000 148.422
62.16000 142.371
62.33000 145.669
62.50000 135.127
62.67000 145.103
62.84000 134.921
63.01000 147.491
63.18000 134.746
63.35000 149.331
63.52000 153.142
63.69000 153.486
63.86000 155.798
64.03000 143.828
64.20000 159.940
64.37000 159.798
64.54000 173.928
64.71000 179.644
64.88000 182.831
65.05000 188.768
65.22000 214.272
65.39000 226.686
65.56000 298.697
65.73000 547.075
65.90000 1041.157
66.07000 379.901
66.24000 324.666
66.41000 446.081
66.58000 349.200
66.75000 320.195
66.92000 339.275
67.09000 358.227
67.26000 396.384
67.43000 418.445
67.60000 443.176
67.77000 456.899
67.94000 518.772
68.11000 558.100
68.28000 638.113
68.45000 727.844
68.62000 1009.577
68.79000 1889.504
68.96000 10846.030
69.13000 53687.781
69.30000 31985.930
69.47000 7963.171
69.64000 1249.141
69.81000 840.278
69.98000 659.474
70.00000 654.398