Folder: Master-Thesis/XRD/XRD/22-09-2025 Dep 2/XY Data (part 6)

File: BTO_Mapping_Theta2Theta_22-09-2025_001_59_6-676_-29-248.xy
20.00000 559.365
20.17000 573.493
20.34000 580.282
20.51000 567.042
20.68000 569.730
20.85000 541.596
21.02000 562.789
21.19000 558.203
21.36000 550.371
21.53000 580.748
21.70000 560.453
21.87000 635.113
22.04000 772.685
22.21000 732.412
22.38000 624.108
22.55000 545.229
22.72000 540.820
22.89000 535.855
23.06000 515.842
23.23000 502.939
23.40000 513.093
23.57000 514.009
23.74000 499.435
23.91000 508.830
24.08000 508.944
24.25000 496.712
24.42000 482.738
24.59000 500.632
24.76000 461.275
24.93000 493.618
25.10000 490.685
25.27000 476.526
25.44000 447.702
25.61000 466.938
25.78000 467.284
25.95000 456.954
26.12000 467.415
26.29000 443.072
26.46000 444.574
26.63000 458.485
26.80000 449.314
26.97000 447.709
27.14000 438.624
27.31000 424.408
27.48000 441.457
27.65000 447.089
27.82000 433.278
27.99000 435.543
28.16000 439.074
28.33000 428.707
28.50000 452.175
28.67000 438.257
28.84000 430.177
29.01000 415.723
29.18000 416.679
29.35000 407.113
29.52000 395.286
29.69000 410.921
29.86000 418.675
30.03000 444.281
30.20000 453.391
30.37000 424.547
30.54000 454.237
30.71000 457.543
30.88000 500.286
31.05000 662.279
31.22000 1480.792
31.39000 3241.392
31.56000 2325.539
31.73000 945.299
31.90000 543.737
32.07000 448.770
32.24000 406.471
32.41000 406.472
32.58000 393.744
32.75000 381.979
32.92000 431.072
33.09000 391.811
33.26000 359.067
33.43000 339.961
33.60000 332.357
33.77000 353.259
33.94000 340.745
34.11000 348.517
34.28000 341.932
34.45000 326.893
34.62000 336.623
34.79000 323.533
34.96000 313.090
35.13000 331.009
35.30000 325.288
35.47000 318.955
35.64000 310.048
35.81000 312.434
35.98000 298.895
36.15000 295.124
36.32000 302.432
36.49000 305.006
36.66000 294.254
36.83000 318.996
37.00000 307.850
37.17000 294.704
37.34000 287.534
37.51000 300.049
37.68000 293.060
37.85000 309.887
38.02000 288.757
38.19000 304.803
38.36000 329.229
38.53000 499.810
38.70000 953.424
38.87000 836.572
39.04000 411.979
39.21000 328.090
39.38000 285.225
39.55000 280.715
39.72000 262.174
39.89000 267.272
40.06000 265.046
40.23000 270.711
40.40000 256.315
40.57000 250.887
40.74000 262.746
40.91000 242.108
41.08000 241.017
41.25000 243.860
41.42000 254.629
41.59000 245.843
41.76000 243.205
41.93000 232.804
42.10000 245.549
42.27000 237.909
42.44000 247.818
42.61000 225.659
42.78000 224.524
42.95000 237.205
43.12000 241.873
43.29000 230.280
43.46000 230.614
43.63000 231.552
43.80000 234.209
43.97000 222.421
44.14000 228.601
44.31000 235.308
44.48000 235.569
44.65000 240.962
44.82000 278.355
44.99000 351.438
45.16000 398.823
45.33000 359.694
45.50000 305.284
45.67000 258.993
45.84000 239.784
46.01000 232.263
46.18000 225.328
46.35000 211.344
46.52000 199.180
46.69000 197.611
46.86000 184.891
47.03000 197.939
47.20000 192.393
47.37000 199.085
47.54000 171.293
47.71000 192.093
47.88000 170.613
48.05000 193.807
48.22000 185.081
48.39000 185.609
48.56000 189.671
48.73000 180.710
48.90000 167.644
49.07000 181.562
49.24000 183.989
49.41000 165.327
49.58000 173.686
49.75000 178.560
49.92000 186.470
50.09000 179.910
50.26000 178.393
50.43000 192.107
50.60000 222.554
50.77000 263.365
50.94000 233.582
51.11000 190.548
51.28000 189.708
51.45000 181.523
51.62000 169.128
51.79000 153.011
51.96000 181.691
52.13000 155.203
52.30000 163.722
52.47000 153.379
52.64000 161.855
52.81000 157.278
52.98000 165.787
53.15000 159.350
53.32000 166.646
53.49000 159.863
53.66000 161.776
53.83000 158.755
54.00000 156.850
54.17000 147.025
54.34000 151.872
54.51000 164.008
54.68000 155.152
54.85000 155.980
55.02000 160.023
55.19000 167.372
55.36000 173.800
55.53000 202.615
55.70000 247.617
55.87000 438.056
56.04000 549.089
56.21000 411.303
56.38000 250.302
56.55000 190.638
56.72000 162.726
56.89000 159.273
57.06000 144.376
57.23000 150.717
57.40000 139.500
57.57000 147.574
57.74000 144.002
57.91000 142.949
58.08000 142.639
58.25000 139.475
58.42000 139.706
58.59000 133.448
58.76000 149.658
58.93000 136.201
59.10000 142.503
59.27000 138.268
59.44000 139.349
59.61000 137.988
59.78000 135.437
59.95000 136.408
60.12000 145.156
60.29000 125.631
60.46000 126.625
60.63000 131.118
60.80000 133.406
60.97000 133.600
61.14000 137.846
61.31000 145.415
61.48000 145.167
61.65000 292.522
61.82000 225.151
61.99000 143.151
62.16000 147.215
62.33000 146.362
62.50000 146.541
62.67000 143.703
62.84000 146.037
63.01000 154.824
63.18000 148.982
63.35000 140.443
63.52000 151.070
63.69000 158.275
63.86000 150.405
64.03000 153.455
64.20000 168.462
64.37000 155.201
64.54000 165.513
64.71000 171.845
64.88000 184.030
65.05000 200.446
65.22000 227.322
65.39000 287.855
65.56000 392.378
65.73000 674.756
65.90000 1252.306
66.07000 461.518
66.24000 342.470
66.41000 486.775
66.58000 372.127
66.75000 338.677
66.92000 345.845
67.09000 393.630
67.26000 384.979
67.43000 432.323
67.60000 458.041
67.77000 502.567
67.94000 533.755
68.11000 586.462
68.28000 667.664
68.45000 751.439
68.62000 1108.465
68.79000 2107.483
68.96000 11637.005
69.13000 68505.914
69.30000 44065.336
69.47000 12678.439
69.64000 1490.647
69.81000 898.728
69.98000 792.578
70.00000 758.290

File: BTO_Mapping_Theta2Theta_22-09-2025_001_60_8-901_-38-997.xy
20.00000 582.558
20.17000 553.517
20.34000 564.238
20.51000 549.489
20.68000 544.039
20.85000 552.953
21.02000 552.740
21.19000 576.241
21.36000 562.518
21.53000 558.944
21.70000 581.239
21.87000 614.659
22.04000 749.437
22.21000 755.385
22.38000 640.139
22.55000 561.311
22.72000 523.030
22.89000 525.477
23.06000 506.695
23.23000 508.537
23.40000 519.108
23.57000 503.034
23.74000 491.334
23.91000 521.254
24.08000 515.391
24.25000 508.010
24.42000 490.243
24.59000 485.403
24.76000 480.580
24.93000 464.904
25.10000 478.840
25.27000 484.226
25.44000 488.744
25.61000 491.929
25.78000 463.566
25.95000 467.726
26.12000 458.302
26.29000 448.105
26.46000 463.414
26.63000 445.803
26.80000 435.435
26.97000 453.889
27.14000 452.743
27.31000 449.327
27.48000 427.131
27.65000 447.700
27.82000 452.793
27.99000 412.409
28.16000 437.718
28.33000 425.618
28.50000 414.765
28.67000 433.892
28.84000 420.569
29.01000 406.266
29.18000 401.838
29.35000 412.598
29.52000 397.610
29.69000 418.398
29.86000 434.956
30.03000 440.455
30.20000 449.939
30.37000 444.157
30.54000 442.945
30.71000 447.909
30.88000 501.929
31.05000 611.921
31.22000 1302.246
31.39000 3035.868
31.56000 2473.314
31.73000 992.751
31.90000 563.500
32.07000 453.294
32.24000 396.708
32.41000 388.916
32.58000 386.493
32.75000 391.145
32.92000 409.979
33.09000 394.315
33.26000 347.715
33.43000 344.669
33.60000 349.582
33.77000 329.901
33.94000 329.746
34.11000 343.593
34.28000 358.068
34.45000 339.542
34.62000 342.748
34.79000 317.863
34.96000 329.436
35.13000 313.691
35.30000 321.183
35.47000 317.532
35.64000 312.029
35.81000 308.280
35.98000 311.161
36.15000 322.576
36.32000 296.996
36.49000 317.269
36.66000 317.102
36.83000 283.260
37.00000 297.800
37.17000 296.965
37.34000 308.444
37.51000 297.448
37.68000 286.503
37.85000 293.526
38.02000 290.572
38.19000 297.333
38.36000 348.391
38.53000 452.338
38.70000 873.079
38.87000 867.126
39.04000 440.014
39.21000 319.755
39.38000 280.362
39.55000 269.680
39.72000 283.068
39.89000 268.329
40.06000 256.018
40.23000 257.425
40.40000 262.162
40.57000 258.506
40.74000 252.666
40.91000 245.817
41.08000 249.382
41.25000 237.969
41.42000 248.249
41.59000 234.991
41.76000 247.206
41.93000 245.110
42.10000 229.659
42.27000 246.007
42.44000 246.349
42.61000 229.722
42.78000 224.325
42.95000 232.097
43.12000 232.480
43.29000 226.168
43.46000 230.796
43.63000 219.643
43.80000 227.529
43.97000 236.895
44.14000 228.862
44.31000 226.397
44.48000 230.179
44.65000 238.726
44.82000 257.250
44.99000 333.480
45.16000 381.082
45.33000 365.126
45.50000 301.610
45.67000 265.878
45.84000 248.527
46.01000 214.218
46.18000 209.632
46.35000 208.828
46.52000 202.771
46.69000 202.860
46.86000 195.970
47.03000 187.761
47.20000 195.723
47.37000 187.474
47.54000 194.537
47.71000 190.969
47.88000 185.620
48.05000 178.464
48.22000 187.237
48.39000 187.029
48.56000 188.695
48.73000 184.330
48.90000 187.305
49.07000 188.543
49.24000 167.358
49.41000 175.459
49.58000 167.335
49.75000 179.406
49.92000 171.026
50.09000 187.566
50.26000 183.059
50.43000 190.000
50.60000 231.958
50.77000 276.979
50.94000 246.824
51.11000 204.779
51.28000 172.600
51.45000 176.852
51.62000 173.644
51.79000 163.972
51.96000 157.805
52.13000 163.675
52.30000 179.005
52.47000 162.153
52.64000 158.017
52.81000 153.333
52.98000 153.294
53.15000 163.750
53.32000 162.573
53.49000 160.173
53.66000 155.932
53.83000 165.001
54.00000 162.611
54.17000 151.316
54.34000 148.611
54.51000 158.495
54.68000 154.272
54.85000 154.510
55.02000 162.339
55.19000 158.750
55.36000 170.845
55.53000 189.755
55.70000 234.086
55.87000 369.320
56.04000 541.230
56.21000 399.456
56.38000 280.016
56.55000 207.277
56.72000 171.598
56.89000 154.417
57.06000 157.964
57.23000 145.306
57.40000 144.940
57.57000 143.975
57.74000 152.032
57.91000 139.520
58.08000 146.052
58.25000 134.554
58.42000 140.565
58.59000 126.486
58.76000 135.110
58.93000 146.014
59.10000 139.912
59.27000 137.254
59.44000 131.162
59.61000 130.645
59.78000 138.137
59.95000 132.047
60.12000 140.371
60.29000 138.589
60.46000 135.307
60.63000 128.525
60.80000 133.002
60.97000 138.699
61.14000 131.566
61.31000 133.495
61.48000 154.931
61.65000 275.179
61.82000 224.051
61.99000 150.491
62.16000 148.148
62.33000 138.556
62.50000 148.191
62.67000 143.761
62.84000 135.596
63.01000 153.577
63.18000 147.197
63.35000 150.338
63.52000 149.899
63.69000 155.351
63.86000 147.674
64.03000 161.570
64.20000 163.000
64.37000 170.279
64.54000 173.202
64.71000 166.085
64.88000 181.567
65.05000 195.752
65.22000 216.329
65.39000 274.314
65.56000 393.225
65.73000 638.969
65.90000 1203.663
66.07000 474.339
66.24000 340.473
66.41000 469.311
66.58000 378.523
66.75000 325.673
66.92000 342.243
67.09000 357.277
67.26000 403.813
67.43000 395.740
67.60000 441.059
67.77000 487.850
67.94000 527.095
68.11000 574.055
68.28000 632.135
68.45000 753.274
68.62000 1041.253
68.79000 1980.099
68.96000 9322.092
69.13000 65587.563
69.30000 44271.563
69.47000 13866.580
69.64000 1491.148
69.81000 917.760
69.98000 735.493
70.00000 714.794

File: BTO_Mapping_Theta2Theta_22-09-2025_001_61_11-126_-48-746.xy
20.00000 821.257
20.17000 821.760
20.34000 807.321
20.51000 810.437
20.68000 801.640
20.85000 775.107
21.02000 752.639
21.19000 766.865
21.36000 739.615
21.53000 735.478
21.70000 713.502
21.87000 719.675
22.04000 712.461
22.21000 736.889
22.38000 697.802
22.55000 702.550
22.72000 694.825
22.89000 678.816
23.06000 680.617
23.23000 658.514
23.40000 649.139
23.57000 654.275
23.74000 646.469
23.91000 643.139
24.08000 648.319
24.25000 607.768
24.42000 623.120
24.59000 616.837
24.76000 611.372
24.93000 616.292
25.10000 594.791
25.27000 600.428
25.44000 588.359
25.61000 590.736
25.78000 544.575
25.95000 594.974
26.12000 565.260
26.29000 563.606
26.46000 560.965
26.63000 530.177
26.80000 540.073
26.97000 523.554
27.14000 542.165
27.31000 511.028
27.48000 518.118
27.65000 520.877
27.82000 523.572
27.99000 499.041
28.16000 491.659
28.33000 509.268
28.50000 469.567
28.67000 493.878
28.84000 487.097
29.01000 467.513
29.18000 476.530
29.35000 476.300
29.52000 469.156
29.69000 450.410
29.86000 450.640
30.03000 457.122
30.20000 453.116
30.37000 449.348
30.54000 433.779
30.71000 451.597
30.88000 429.086
31.05000 442.723
31.22000 417.630
31.39000 417.293
31.56000 428.100
31.73000 421.215
31.90000 402.660
32.07000 402.950
32.24000 407.082
32.41000 399.017
32.58000 391.087
32.75000 394.417
32.92000 415.160
33.09000 415.322
33.26000 372.273
33.43000 386.869
33.60000 370.464
33.77000 365.875
33.94000 347.993
34.11000 359.826
34.28000 363.042
34.45000 363.815
34.62000 356.172
34.79000 355.477
34.96000 348.510
35.13000 359.003
35.30000 329.882
35.47000 341.663
35.64000 340.105
35.81000 329.169
35.98000 332.644
36.15000 317.875
36.32000 328.425
36.49000 335.203
36.66000 331.770
36.83000 313.932
37.00000 336.050
37.17000 308.694
37.34000 310.608
37.51000 315.101
37.68000 303.400
37.85000 304.847
38.02000 315.121
38.19000 295.770
38.36000 292.612
38.53000 296.383
38.70000 289.223
38.87000 286.976
39.04000 274.867
39.21000 278.893
39.38000 292.131
39.55000 281.537
39.72000 283.413
39.89000 271.834
40.06000 274.091
40.23000 266.935
40.40000 264.473
40.57000 259.043
40.74000 269.579
40.91000 268.076
41.08000 252.938
41.25000 258.916
41.42000 256.422
41.59000 262.803
41.76000 263.678
41.93000 246.601
42.10000 242.157
42.27000 255.018
42.44000 243.117
42.61000 244.307
42.78000 256.308
42.95000 238.599
43.12000 237.063
43.29000 241.764
43.46000 236.018
43.63000 234.430
43.80000 245.759
43.97000 230.254
44.14000 230.102
44.31000 222.255
44.48000 222.351
44.65000 234.415
44.82000 225.053
44.99000 221.193
45.16000 219.413
45.33000 217.427
45.50000 213.141
45.67000 216.732
45.84000 220.277
46.01000 209.870
46.18000 212.128
46.35000 210.538
46.52000 202.355
46.69000 219.082
46.86000 200.161
47.03000 207.754
47.20000 198.010
47.37000 202.558
47.54000 192.718
47.71000 211.771
47.88000 186.265
48.05000 201.386
48.22000 190.295
48.39000 183.316
48.56000 190.718
48.73000 194.883
48.90000 189.700
49.07000 198.812
49.24000 186.044
49.41000 178.039
49.58000 180.898
49.75000 184.807
49.92000 185.509
50.09000 171.410
50.26000 186.061
50.43000 163.924
50.60000 177.074
50.77000 185.414
50.94000 164.362
51.11000 175.637
51.28000 179.013
51.45000 168.031
51.62000 181.194
51.79000 166.210
51.96000 177.382
52.13000 160.030
52.30000 161.230
52.47000 161.477
52.64000 171.924
52.81000 164.120
52.98000 164.538
53.15000 167.340
53.32000 166.016
53.49000 161.673
53.66000 162.593
53.83000 162.498
54.00000 156.180
54.17000 157.399
54.34000 156.482
54.51000 164.472
54.68000 162.249
54.85000 159.021
55.02000 151.603
55.19000 152.734
55.36000 149.236
55.53000 146.412
55.70000 149.746
55.87000 152.189
56.04000 141.592
56.21000 149.547
56.38000 159.928
56.55000 144.082
56.72000 145.507
56.89000 154.285
57.06000 140.197
57.23000 154.398
57.40000 142.438
57.57000 149.603
57.74000 134.945
57.91000 143.803
58.08000 137.425
58.25000 141.702
58.42000 144.348
58.59000 143.034
58.76000 149.953
58.93000 144.112
59.10000 141.932
59.27000 144.969
59.44000 137.518
59.61000 142.194
59.78000 137.515
59.95000 129.326
60.12000 140.139
60.29000 147.800
60.46000 144.203
60.63000 129.436
60.80000 139.841
60.97000 143.606
61.14000 136.461
61.31000 142.553
61.48000 145.239
61.65000 264.029
61.82000 224.736
61.99000 144.780
62.16000 145.752
62.33000 147.075
62.50000 149.585
62.67000 148.687
62.84000 142.781
63.01000 137.804
63.18000 154.660
63.35000 156.409
63.52000 176.710
63.69000 165.607
63.86000 171.651
64.03000 173.911
64.20000 167.329
64.37000 175.389
64.54000 180.408
64.71000 195.133
64.88000 191.232
65.05000 192.047
65.22000 219.742
65.39000 227.965
65.56000 249.041
65.73000 427.143
65.90000 989.949
66.07000 390.074
66.24000 329.671
66.41000 448.778
66.58000 383.186
66.75000 343.130
66.92000 371.196
67.09000 383.466
67.26000 413.230
67.43000 449.964
67.60000 483.375
67.77000 501.417
67.94000 555.680
68.11000 600.630
68.28000 665.404
68.45000 749.445
68.62000 985.481
68.79000 1841.069
68.96000 6997.746
69.13000 55372.039
69.30000 36942.367
69.47000 11683.549
69.64000 1411.228
69.81000 924.125
69.98000 746.375
70.00000 720.791

File: BTO_Mapping_Theta2Theta_22-09-2025_001_64_18-705_-23-455.xy
20.00000 566.301
20.17000 582.159
20.34000 578.954
20.51000 566.930
20.68000 560.696
20.85000 544.795
21.02000 587.303
21.19000 554.435
21.36000 549.407
21.53000 544.872
21.70000 567.783
21.87000 621.994
22.04000 701.948
22.21000 690.274
22.38000 632.787
22.55000 561.409
22.72000 533.284
22.89000 527.789
23.06000 518.798
23.23000 520.472
23.40000 524.400
23.57000 532.192
23.74000 539.237
23.91000 495.260
24.08000 523.287
24.25000 545.679
24.42000 488.654
24.59000 499.933
24.76000 482.209
24.93000 470.080
25.10000 462.428
25.27000 470.251
25.44000 462.485
25.61000 466.533
25.78000 466.274
25.95000 459.490
26.12000 447.993
26.29000 452.676
26.46000 457.588
26.63000 446.213
26.80000 452.278
26.97000 452.632
27.14000 447.095
27.31000 436.292
27.48000 440.406
27.65000 419.970
27.82000 435.687
27.99000 422.113
28.16000 434.947
28.33000 422.586
28.50000 424.825
28.67000 414.809
28.84000 417.598
29.01000 415.969
29.18000 409.698
29.35000 411.839
29.52000 414.065
29.69000 403.439
29.86000 426.761
30.03000 440.021
30.20000 447.909
30.37000 432.993
30.54000 424.974
30.71000 441.135
30.88000 483.962
31.05000 622.276
31.22000 1302.611
31.39000 2858.400
31.56000 2052.222
31.73000 836.097
31.90000 522.961
32.07000 452.060
32.24000 415.423
32.41000 388.903
32.58000 385.681
32.75000 383.985
32.92000 417.217
33.09000 372.291
33.26000 350.968
33.43000 350.016
33.60000 332.984
33.77000 323.460
33.94000 318.980
34.11000 335.777
34.28000 343.764
34.45000 322.211
34.62000 334.677
34.79000 311.242
34.96000 319.969
35.13000 300.003
35.30000 294.673
35.47000 312.531
35.64000 305.374
35.81000 317.251
35.98000 298.101
36.15000 306.147
36.32000 298.286
36.49000 298.455
36.66000 306.071
36.83000 294.665
37.00000 297.660
37.17000 311.207
37.34000 298.959
37.51000 297.447
37.68000 281.733
37.85000 298.619
38.02000 304.862
38.19000 332.985
38.36000 324.202
38.53000 475.612
38.70000 973.535
38.87000 924.465
39.04000 436.465
39.21000 307.656
39.38000 287.033
39.55000 257.933
39.72000 272.737
39.89000 263.404
40.06000 268.467
40.23000 263.517
40.40000 255.500
40.57000 261.627
40.74000 245.970
40.91000 261.902
41.08000 247.930
41.25000 261.133
41.42000 254.945
41.59000 245.133
41.76000 256.747
41.93000 239.874
42.10000 255.337
42.27000 238.262
42.44000 234.343
42.61000 242.558
42.78000 236.738
42.95000 235.898
43.12000 226.058
43.29000 236.727
43.46000 221.269
43.63000 236.222
43.80000 213.366
43.97000 218.843
44.14000 224.714
44.31000 212.644
44.48000 232.037
44.65000 242.259
44.82000 274.369
44.99000 323.424
45.16000 365.919
45.33000 337.433
45.50000 288.036
45.67000 252.509
45.84000 232.298
46.01000 214.579
46.18000 206.597
46.35000 207.347
46.52000 199.628
46.69000 195.919
46.86000 204.104
47.03000 197.880
47.20000 198.663
47.37000 190.846
47.54000 197.340
47.71000 190.738
47.88000 165.728
48.05000 195.935
48.22000 184.533
48.39000 183.039
48.56000 183.535
48.73000 182.036
48.90000 179.771
49.07000 180.249
49.24000 185.718
49.41000 169.010
49.58000 175.849
49.75000 168.113
49.92000 178.744
50.09000 169.294
50.26000 177.536
50.43000 188.249
50.60000 226.014
50.77000 257.376
50.94000 235.170
51.11000 198.024
51.28000 182.762
51.45000 171.101
51.62000 171.522
51.79000 159.724
51.96000 165.519
52.13000 158.470
52.30000 151.173
52.47000 149.105
52.64000 167.807
52.81000 159.710
52.98000 155.398
53.15000 163.616
53.32000 161.236
53.49000 153.738
53.66000 164.960
53.83000 158.624
54.00000 159.543
54.17000 155.439
54.34000 161.706
54.51000 155.332
54.68000 158.241
54.85000 146.953
55.02000 163.668
55.19000 166.051
55.36000 164.031
55.53000 190.829
55.70000 241.723
55.87000 394.915
56.04000 542.439
56.21000 385.107
56.38000 255.542
56.55000 187.040
56.72000 159.955
56.89000 160.820
57.06000 152.977
57.23000 147.524
57.40000 151.800
57.57000 143.872
57.74000 147.277
57.91000 136.596
58.08000 141.657
58.25000 141.541
58.42000 141.194
58.59000 136.408
58.76000 141.810
58.93000 134.762
59.10000 134.262
59.27000 141.520
59.44000 133.011
59.61000 125.693
59.78000 136.001
59.95000 132.120
60.12000 126.286
60.29000 134.927
60.46000 126.662
60.63000 129.002
60.80000 140.544
60.97000 127.367
61.14000 132.739
61.31000 135.484
61.48000 152.746
61.65000 272.200
61.82000 223.268
61.99000 141.427
62.16000 141.094
62.33000 139.338
62.50000 140.717
62.67000 144.166
62.84000 145.059
63.01000 143.400
63.18000 135.517
63.35000 153.200
63.52000 144.298
63.69000 142.927
63.86000 153.484
64.03000 160.632
64.20000 159.803
64.37000 170.837
64.54000 169.698
64.71000 186.623
64.88000 191.228
65.05000 186.043
65.22000 219.477
65.39000 276.859
65.56000 366.886
65.73000 638.454
65.90000 1137.118
66.07000 407.165
66.24000 298.969
66.41000 446.978
66.58000 356.678
66.75000 324.896
66.92000 332.738
67.09000 351.703
67.26000 374.148
67.43000 412.406
67.60000 437.976
67.77000 456.074
67.94000 516.914
68.11000 553.964
68.28000 640.990
68.45000 737.797
68.62000 1036.448
68.79000 1907.556
68.96000 10282.783
69.13000 60438.277
69.30000 38069.855
69.47000 10796.418
69.64000 1351.885
69.81000 857.384
69.98000 710.254
70.00000 688.949

File: BTO_Mapping_Theta2Theta_22-09-2025_001_66_31-174_-39-092.xy
20.00000 983.623
20.17000 939.967
20.34000 957.862
20.51000 930.568
20.68000 931.765
20.85000 930.940
21.02000 925.076
21.19000 899.175
21.36000 880.884
21.53000 871.647
21.70000 870.966
21.87000 864.014
22.04000 852.141
22.21000 829.972
22.38000 845.754
22.55000 820.613
22.72000 828.432
22.89000 828.666
23.06000 803.178
23.23000 803.511
23.40000 770.269
23.57000 757.828
23.74000 755.117
23.91000 761.389
24.08000 742.187
24.25000 739.780
24.42000 746.071
24.59000 710.654
24.76000 727.356
24.93000 712.680
25.10000 711.909
25.27000 681.888
25.44000 706.684
25.61000 675.448
25.78000 660.763
25.95000 650.892
26.12000 664.447
26.29000 654.509
26.46000 649.530
26.63000 631.933
26.80000 618.657
26.97000 623.379
27.14000 621.082
27.31000 618.054
27.48000 610.062
27.65000 618.459
27.82000 587.786
27.99000 579.108
28.16000 600.644
28.33000 583.518
28.50000 559.586
28.67000 568.915
28.84000 569.143
29.01000 551.117
29.18000 553.650
29.35000 560.672
29.52000 547.801
29.69000 527.103
29.86000 533.383
30.03000 517.715
30.20000 517.627
30.37000 491.049
30.54000 494.193
30.71000 502.289
30.88000 494.174
31.05000 466.972
31.22000 474.108
31.39000 475.454
31.56000 465.214
31.73000 470.623
31.90000 479.431
32.07000 458.221
32.24000 444.039
32.41000 473.301
32.58000 451.388
32.75000 453.035
32.92000 463.746
33.09000 446.006
33.26000 438.432
33.43000 451.330
33.60000 419.790
33.77000 424.358
33.94000 422.520
34.11000 421.273
34.28000 411.822
34.45000 405.383
34.62000 425.444
34.79000 401.901
34.96000 370.333
35.13000 381.724
35.30000 386.561
35.47000 399.744
35.64000 373.640
35.81000 380.856
35.98000 369.743
36.15000 359.404
36.32000 362.078
36.49000 374.353
36.66000 368.664
36.83000 346.958
37.00000 361.516
37.17000 340.782
37.34000 354.392
37.51000 345.442
37.68000 362.708
37.85000 330.403
38.02000 325.198
38.19000 343.636
38.36000 331.983
38.53000 330.608
38.70000 327.498
38.87000 327.045
39.04000 324.301
39.21000 309.097
39.38000 316.386
39.55000 304.705
39.72000 322.456
39.89000 314.174
40.06000 294.230
40.23000 298.997
40.40000 287.770
40.57000 286.820
40.74000 291.914
40.91000 291.384
41.08000 289.598
41.25000 293.213
41.42000 276.502
41.59000 279.829
41.76000 273.920
41.93000 277.981
42.10000 288.131
42.27000 257.381
42.44000 272.371
42.61000 264.666
42.78000 260.569
42.95000 263.665
43.12000 266.023
43.29000 245.686
43.46000 260.695
43.63000 270.444
43.80000 250.939
43.97000 264.814
44.14000 260.014
44.31000 247.292
44.48000 247.025
44.65000 244.452
44.82000 257.018
44.99000 248.495
45.16000 242.603
45.33000 236.826
45.50000 232.814
45.67000 232.044
45.84000 238.011
46.01000 235.382
46.18000 228.794
46.35000 236.356
46.52000 228.882
46.69000 217.476
46.86000 220.076
47.03000 219.780
47.20000 232.162
47.37000 226.703
47.54000 225.067
47.71000 210.848
47.88000 231.205
48.05000 201.804
48.22000 208.168
48.39000 200.336
48.56000 216.466
48.73000 198.549
48.90000 201.686
49.07000 210.091
49.24000 198.783
49.41000 208.267
49.58000 190.629
49.75000 205.401
49.92000 196.457
50.09000 180.739
50.26000 197.657
50.43000 197.001
50.60000 195.263
50.77000 191.694
50.94000 193.763
51.11000 192.335
51.28000 186.153
51.45000 183.794
51.62000 186.263
51.79000 176.295
51.96000 179.509
52.13000 179.907
52.30000 188.385
52.47000 175.472
52.64000 180.771
52.81000 179.561
52.98000 159.900
53.15000 176.030
53.32000 177.855
53.49000 176.690
53.66000 177.715
53.83000 176.121
54.00000 178.289
54.17000 171.586
54.34000 167.204
54.51000 155.593
54.68000 158.287
54.85000 160.150
55.02000 150.593
55.19000 159.440
55.36000 156.942
55.53000 159.538
55.70000 168.525
55.87000 170.944
56.04000 160.234
56.21000 151.896
56.38000 157.251
56.55000 154.197
56.72000 152.275
56.89000 148.963
57.06000 151.913
57.23000 157.407
57.40000 149.110
57.57000 140.238
57.74000 141.097
57.91000 153.408
58.08000 159.652
58.25000 154.869
58.42000 149.766
58.59000 145.478
58.76000 150.342
58.93000 143.573
59.10000 144.409
59.27000 146.561
59.44000 150.254
59.61000 147.134
59.78000 150.391
59.95000 155.953
60.12000 150.037
60.29000 152.502
60.46000 143.536
60.63000 143.052
60.80000 142.032
60.97000 141.107
61.14000 144.523
61.31000 154.171
61.48000 157.098
61.65000 252.501
61.82000 225.665
61.99000 157.619
62.16000 153.877
62.33000 146.161
62.50000 162.590
62.67000 156.590
62.84000 154.963
63.01000 150.761
63.18000 144.001
63.35000 159.008
63.52000 162.583
63.69000 166.947
63.86000 169.525
64.03000 166.620
64.20000 165.033
64.37000 174.391
64.54000 190.212
64.71000 186.203
64.88000 191.382
65.05000 189.927
65.22000 186.862
65.39000 213.899
65.56000 226.516
65.73000 423.241
65.90000 930.394
66.07000 382.316
66.24000 305.346
66.41000 425.401
66.58000 342.615
66.75000 319.089
66.92000 339.824
67.09000 357.187
67.26000 411.534
67.43000 405.118
67.60000 426.009
67.77000 474.836
67.94000 516.805
68.11000 562.270
68.28000 632.332
68.45000 719.000
68.62000 958.265
68.79000 1686.096
68.96000 7000.457
69.13000 52038.160
69.30000 32044.154
69.47000 9096.942
69.64000 1249.848
69.81000 833.025
69.98000 663.773
70.00000 656.843