Folder: Master-Thesis/XRD/XRD/22-09-2025 Dep 2/XY Data (part 4)

File: BTO_Mapping_Theta2Theta_22-09-2025_001_31_-31-174_39-092.xy
20.00000 569.820
20.17000 582.329
20.34000 564.433
20.51000 529.683
20.68000 568.599
20.85000 539.604
21.02000 525.586
21.19000 521.173
21.36000 526.243
21.53000 535.019
21.70000 510.223
21.87000 534.402
22.04000 525.122
22.21000 539.864
22.38000 521.150
22.55000 505.272
22.72000 521.669
22.89000 507.170
23.06000 511.080
23.23000 504.342
23.40000 515.798
23.57000 489.311
23.74000 479.456
23.91000 473.827
24.08000 500.449
24.25000 484.988
24.42000 479.726
24.59000 462.445
24.76000 460.318
24.93000 466.011
25.10000 463.946
25.27000 460.326
25.44000 453.713
25.61000 482.210
25.78000 448.129
25.95000 456.965
26.12000 429.069
26.29000 439.401
26.46000 429.644
26.63000 423.851
26.80000 441.054
26.97000 439.072
27.14000 411.224
27.31000 413.947
27.48000 418.489
27.65000 409.003
27.82000 402.381
27.99000 411.682
28.16000 399.620
28.33000 403.999
28.50000 403.727
28.67000 400.565
28.84000 396.741
29.01000 408.440
29.18000 391.310
29.35000 375.352
29.52000 381.209
29.69000 382.718
29.86000 383.531
30.03000 368.359
30.20000 372.679
30.37000 346.012
30.54000 372.203
30.71000 362.478
30.88000 354.781
31.05000 351.774
31.22000 349.110
31.39000 353.510
31.56000 363.140
31.73000 357.037
31.90000 342.826
32.07000 334.046
32.24000 344.137
32.41000 351.296
32.58000 349.301
32.75000 337.541
32.92000 341.542
33.09000 326.468
33.26000 327.068
33.43000 324.137
33.60000 332.453
33.77000 320.106
33.94000 329.544
34.11000 320.664
34.28000 306.123
34.45000 303.840
34.62000 310.934
34.79000 300.757
34.96000 308.256
35.13000 294.559
35.30000 305.483
35.47000 282.332
35.64000 293.599
35.81000 284.791
35.98000 293.891
36.15000 282.301
36.32000 307.530
36.49000 290.313
36.66000 289.176
36.83000 278.409
37.00000 280.955
37.17000 273.314
37.34000 278.890
37.51000 271.306
37.68000 268.318
37.85000 260.970
38.02000 282.601
38.19000 264.824
38.36000 259.350
38.53000 263.955
38.70000 258.251
38.87000 247.633
39.04000 263.824
39.21000 251.963
39.38000 260.510
39.55000 246.633
39.72000 252.142
39.89000 228.066
40.06000 251.998
40.23000 229.064
40.40000 231.638
40.57000 235.549
40.74000 236.201
40.91000 220.087
41.08000 242.805
41.25000 228.746
41.42000 221.749
41.59000 223.464
41.76000 221.274
41.93000 225.250
42.10000 219.107
42.27000 219.818
42.44000 213.975
42.61000 216.948
42.78000 215.656
42.95000 220.595
43.12000 219.590
43.29000 207.744
43.46000 194.123
43.63000 212.075
43.80000 202.154
43.97000 205.679
44.14000 211.768
44.31000 210.615
44.48000 201.306
44.65000 182.917
44.82000 203.951
44.99000 194.053
45.16000 187.050
45.33000 188.461
45.50000 194.152
45.67000 185.665
45.84000 190.569
46.01000 191.476
46.18000 198.394
46.35000 188.552
46.52000 188.756
46.69000 195.506
46.86000 193.846
47.03000 179.432
47.20000 176.377
47.37000 174.836
47.54000 175.053
47.71000 184.785
47.88000 173.975
48.05000 192.984
48.22000 182.329
48.39000 173.778
48.56000 178.486
48.73000 180.023
48.90000 178.075
49.07000 170.602
49.24000 181.170
49.41000 175.863
49.58000 183.632
49.75000 168.627
49.92000 179.247
50.09000 176.015
50.26000 184.593
50.43000 180.870
50.60000 175.448
50.77000 164.786
50.94000 175.742
51.11000 173.461
51.28000 164.944
51.45000 173.343
51.62000 176.467
51.79000 170.162
51.96000 172.064
52.13000 169.294
52.30000 173.580
52.47000 182.914
52.64000 182.672
52.81000 165.025
52.98000 182.229
53.15000 156.635
53.32000 167.876
53.49000 184.668
53.66000 181.717
53.83000 175.451
54.00000 186.181
54.17000 179.229
54.34000 175.177
54.51000 182.032
54.68000 181.651
54.85000 179.715
55.02000 180.892
55.19000 182.937
55.36000 195.898
55.53000 187.533
55.70000 174.623
55.87000 192.273
56.04000 189.846
56.21000 199.659
56.38000 184.517
56.55000 186.861
56.72000 189.647
56.89000 202.151
57.06000 191.298
57.23000 185.263
57.40000 203.662
57.57000 188.027
57.74000 193.965
57.91000 193.139
58.08000 204.076
58.25000 204.855
58.42000 207.677
58.59000 222.458
58.76000 203.986
58.93000 209.528
59.10000 208.208
59.27000 215.990
59.44000 222.456
59.61000 212.736
59.78000 222.316
59.95000 223.665
60.12000 227.407
60.29000 213.242
60.46000 205.901
60.63000 229.668
60.80000 221.534
60.97000 222.201
61.14000 234.964
61.31000 228.790
61.48000 238.593
61.65000 228.782
61.82000 238.877
61.99000 243.653
62.16000 240.985
62.33000 261.305
62.50000 237.036
62.67000 248.027
62.84000 239.894
63.01000 238.680
63.18000 251.089
63.35000 270.110
63.52000 254.645
63.69000 264.317
63.86000 258.059
64.03000 268.091
64.20000 275.333
64.37000 297.555
64.54000 305.951
64.71000 306.364
64.88000 307.268
65.05000 302.740
65.22000 281.967
65.39000 294.071
65.56000 300.867
65.73000 296.081
65.90000 343.015
66.07000 312.101
66.24000 302.653
66.41000 303.211
66.58000 311.861
66.75000 319.761
66.92000 325.805
67.09000 317.618
67.26000 333.289
67.43000 338.768
67.60000 343.929
67.77000 344.614
67.94000 351.119
68.11000 341.112
68.28000 351.757
68.45000 346.553
68.62000 378.513
68.79000 395.595
68.96000 619.769
69.13000 2220.629
69.30000 1771.070
69.47000 952.226
69.64000 404.612
69.81000 403.253
69.98000 404.141
70.00000 388.817

File: BTO_Mapping_Theta2Theta_22-09-2025_001_35_-36-039_17-355.xy
20.00000 572.748
20.17000 584.454
20.34000 579.115
20.51000 572.877
20.68000 577.352
20.85000 567.890
21.02000 563.906
21.19000 539.878
21.36000 570.558
21.53000 582.933
21.70000 626.392
21.87000 808.210
22.04000 844.799
22.21000 682.682
22.38000 585.496
22.55000 553.909
22.72000 522.977
22.89000 518.074
23.06000 502.073
23.23000 511.544
23.40000 493.153
23.57000 512.534
23.74000 515.448
23.91000 503.764
24.08000 514.747
24.25000 510.552
24.42000 495.040
24.59000 489.336
24.76000 478.584
24.93000 477.046
25.10000 498.243
25.27000 487.854
25.44000 477.451
25.61000 467.970
25.78000 455.996
25.95000 471.754
26.12000 466.636
26.29000 464.034
26.46000 483.208
26.63000 459.679
26.80000 472.824
26.97000 440.222
27.14000 467.558
27.31000 457.497
27.48000 455.610
27.65000 454.166
27.82000 445.593
27.99000 456.413
28.16000 441.546
28.33000 429.400
28.50000 434.122
28.67000 436.671
28.84000 431.712
29.01000 430.656
29.18000 430.712
29.35000 436.008
29.52000 410.698
29.69000 446.345
29.86000 472.497
30.03000 501.109
30.20000 450.397
30.37000 442.070
30.54000 474.809
30.71000 484.588
30.88000 583.182
31.05000 1387.322
31.22000 5486.457
31.39000 5044.826
31.56000 1455.204
31.73000 659.052
31.90000 485.075
32.07000 437.990
32.24000 421.270
32.41000 427.522
32.58000 401.584
32.75000 399.885
32.92000 435.856
33.09000 387.221
33.26000 377.774
33.43000 359.704
33.60000 368.976
33.77000 355.422
33.94000 365.958
34.11000 348.669
34.28000 348.885
34.45000 330.105
34.62000 332.233
34.79000 334.868
34.96000 335.814
35.13000 334.088
35.30000 343.873
35.47000 318.896
35.64000 314.586
35.81000 321.695
35.98000 317.103
36.15000 313.004
36.32000 300.121
36.49000 330.423
36.66000 330.462
36.83000 330.006
37.00000 316.987
37.17000 326.355
37.34000 312.435
37.51000 316.742
37.68000 312.978
37.85000 312.615
38.02000 325.724
38.19000 357.696
38.36000 433.357
38.53000 552.609
38.70000 509.143
38.87000 390.909
39.04000 317.400
39.21000 306.122
39.38000 291.227
39.55000 286.913
39.72000 271.010
39.89000 270.045
40.06000 278.058
40.23000 260.513
40.40000 270.182
40.57000 270.418
40.74000 257.108
40.91000 256.410
41.08000 263.874
41.25000 264.783
41.42000 247.573
41.59000 247.083
41.76000 250.221
41.93000 240.566
42.10000 259.576
42.27000 214.603
42.44000 228.856
42.61000 246.047
42.78000 235.171
42.95000 243.498
43.12000 242.906
43.29000 233.778
43.46000 238.360
43.63000 230.334
43.80000 240.963
43.97000 255.497
44.14000 236.203
44.31000 246.896
44.48000 298.634
44.65000 385.801
44.82000 503.508
44.99000 489.388
45.16000 389.670
45.33000 302.810
45.50000 268.872
45.67000 267.426
45.84000 238.436
46.01000 213.604
46.18000 203.731
46.35000 206.464
46.52000 206.793
46.69000 206.489
46.86000 194.993
47.03000 208.200
47.20000 196.976
47.37000 207.112
47.54000 193.628
47.71000 200.734
47.88000 189.481
48.05000 183.717
48.22000 183.045
48.39000 191.578
48.56000 194.949
48.73000 200.435
48.90000 181.919
49.07000 188.107
49.24000 178.994
49.41000 182.117
49.58000 182.914
49.75000 199.171
49.92000 189.873
50.09000 191.262
50.26000 229.520
50.43000 280.549
50.60000 283.031
50.77000 232.663
50.94000 204.932
51.11000 195.267
51.28000 185.849
51.45000 190.894
51.62000 171.428
51.79000 166.896
51.96000 161.917
52.13000 158.027
52.30000 163.565
52.47000 175.489
52.64000 163.544
52.81000 172.933
52.98000 160.296
53.15000 162.361
53.32000 163.946
53.49000 166.896
53.66000 154.493
53.83000 156.432
54.00000 155.039
54.17000 158.228
54.34000 162.501
54.51000 155.902
54.68000 162.660
54.85000 165.063
55.02000 187.609
55.19000 188.744
55.36000 236.020
55.53000 427.448
55.70000 577.917
55.87000 473.156
56.04000 312.100
56.21000 230.062
56.38000 189.563
56.55000 172.497
56.72000 151.267
56.89000 155.544
57.06000 143.836
57.23000 143.614
57.40000 154.078
57.57000 152.410
57.74000 147.395
57.91000 139.664
58.08000 149.877
58.25000 148.197
58.42000 140.805
58.59000 147.697
58.76000 140.406
58.93000 137.346
59.10000 146.421
59.27000 130.923
59.44000 137.507
59.61000 128.932
59.78000 136.965
59.95000 136.147
60.12000 130.429
60.29000 133.106
60.46000 128.093
60.63000 132.708
60.80000 141.257
60.97000 136.911
61.14000 145.688
61.31000 131.482
61.48000 159.971
61.65000 364.097
61.82000 254.058
61.99000 145.176
62.16000 152.967
62.33000 151.134
62.50000 144.744
62.67000 145.770
62.84000 156.130
63.01000 141.723
63.18000 144.824
63.35000 150.983
63.52000 158.138
63.69000 161.997
63.86000 154.369
64.03000 169.922
64.20000 163.157
64.37000 176.663
64.54000 182.509
64.71000 191.817
64.88000 212.830
65.05000 324.297
65.22000 515.512
65.39000 564.646
65.56000 485.452
65.73000 832.865
65.90000 1550.332
66.07000 498.034
66.24000 372.481
66.41000 556.265
66.58000 420.362
66.75000 368.220
66.92000 378.428
67.09000 411.786
67.26000 419.626
67.43000 454.344
67.60000 527.931
67.77000 559.624
67.94000 570.871
68.11000 663.730
68.28000 747.171
68.45000 887.619
68.62000 1297.852
68.79000 2624.395
68.96000 18748.074
69.13000 93272.398
69.30000 56242.914
69.47000 14564.973
69.64000 1742.231
69.81000 1076.099
69.98000 808.382
70.00000 821.707

File: BTO_Mapping_Theta2Theta_22-09-2025_001_39_-30-000_0-000.xy
20.00000 587.214
20.17000 567.862
20.34000 583.195
20.51000 554.054
20.68000 557.624
20.85000 553.765
21.02000 576.442
21.19000 566.064
21.36000 560.832
21.53000 587.155
21.70000 648.674
21.87000 821.167
22.04000 875.785
22.21000 698.196
22.38000 598.479
22.55000 552.382
22.72000 544.600
22.89000 521.736
23.06000 521.913
23.23000 519.032
23.40000 515.180
23.57000 489.576
23.74000 508.704
23.91000 503.564
24.08000 520.586
24.25000 502.206
24.42000 496.598
24.59000 506.977
24.76000 480.356
24.93000 505.025
25.10000 485.133
25.27000 485.162
25.44000 476.011
25.61000 456.259
25.78000 475.279
25.95000 453.373
26.12000 456.738
26.29000 461.512
26.46000 458.103
26.63000 456.174
26.80000 458.593
26.97000 447.771
27.14000 445.249
27.31000 459.878
27.48000 446.104
27.65000 434.680
27.82000 439.657
27.99000 464.941
28.16000 449.487
28.33000 431.656
28.50000 440.517
28.67000 438.251
28.84000 434.224
29.01000 428.342
29.18000 435.982
29.35000 421.291
29.52000 424.262
29.69000 416.681
29.86000 491.776
30.03000 470.165
30.20000 472.699
30.37000 447.736
30.54000 448.298
30.71000 456.540
30.88000 523.737
31.05000 1045.016
31.22000 3834.562
31.39000 4555.623
31.56000 1639.412
31.73000 655.110
31.90000 470.844
32.07000 440.645
32.24000 414.143
32.41000 410.577
32.58000 385.783
32.75000 401.200
32.92000 437.926
33.09000 401.831
33.26000 370.063
33.43000 348.925
33.60000 355.290
33.77000 349.575
33.94000 352.864
34.11000 343.671
34.28000 337.440
34.45000 344.737
34.62000 339.082
34.79000 333.405
34.96000 325.534
35.13000 303.417
35.30000 329.101
35.47000 321.408
35.64000 313.564
35.81000 300.046
35.98000 309.441
36.15000 307.351
36.32000 316.971
36.49000 301.347
36.66000 311.068
36.83000 308.077
37.00000 315.317
37.17000 310.103
37.34000 324.383
37.51000 305.683
37.68000 305.077
37.85000 299.041
38.02000 309.460
38.19000 339.165
38.36000 442.209
38.53000 608.420
38.70000 606.698
38.87000 435.020
39.04000 349.173
39.21000 307.936
39.38000 290.799
39.55000 273.390
39.72000 259.360
39.89000 285.626
40.06000 273.083
40.23000 273.577
40.40000 264.083
40.57000 262.132
40.74000 272.214
40.91000 258.451
41.08000 241.509
41.25000 263.423
41.42000 265.439
41.59000 243.712
41.76000 254.338
41.93000 248.673
42.10000 240.622
42.27000 245.579
42.44000 228.072
42.61000 252.419
42.78000 234.527
42.95000 241.341
43.12000 245.435
43.29000 234.303
43.46000 237.953
43.63000 241.404
43.80000 231.487
43.97000 236.368
44.14000 242.714
44.31000 259.131
44.48000 286.700
44.65000 391.787
44.82000 518.047
44.99000 514.578
45.16000 424.258
45.33000 331.556
45.50000 272.913
45.67000 259.355
45.84000 240.450
46.01000 229.458
46.18000 197.686
46.35000 209.787
46.52000 208.309
46.69000 213.589
46.86000 199.879
47.03000 200.426
47.20000 191.712
47.37000 205.661
47.54000 215.817
47.71000 205.851
47.88000 189.087
48.05000 201.457
48.22000 188.416
48.39000 173.604
48.56000 181.582
48.73000 188.791
48.90000 192.301
49.07000 185.973
49.24000 195.677
49.41000 182.637
49.58000 182.316
49.75000 185.302
49.92000 178.818
50.09000 198.235
50.26000 212.992
50.43000 264.867
50.60000 264.019
50.77000 259.131
50.94000 204.158
51.11000 196.850
51.28000 184.311
51.45000 178.422
51.62000 177.610
51.79000 169.565
51.96000 176.957
52.13000 168.330
52.30000 164.973
52.47000 177.151
52.64000 174.120
52.81000 167.038
52.98000 171.165
53.15000 163.476
53.32000 168.912
53.49000 175.596
53.66000 165.705
53.83000 157.990
54.00000 173.736
54.17000 169.634
54.34000 158.701
54.51000 160.034
54.68000 161.005
54.85000 170.130
55.02000 162.974
55.19000 176.688
55.36000 239.834
55.53000 357.171
55.70000 536.476
55.87000 515.970
56.04000 347.122
56.21000 241.043
56.38000 198.200
56.55000 169.017
56.72000 164.707
56.89000 147.788
57.06000 158.205
57.23000 152.359
57.40000 153.314
57.57000 156.835
57.74000 135.751
57.91000 145.853
58.08000 141.409
58.25000 143.933
58.42000 138.520
58.59000 139.615
58.76000 156.408
58.93000 146.967
59.10000 141.130
59.27000 136.463
59.44000 141.089
59.61000 135.314
59.78000 130.580
59.95000 133.864
60.12000 148.434
60.29000 129.853
60.46000 130.836
60.63000 138.288
60.80000 139.653
60.97000 138.313
61.14000 151.940
61.31000 138.796
61.48000 153.258
61.65000 353.205
61.82000 236.170
61.99000 150.004
62.16000 148.140
62.33000 147.652
62.50000 137.270
62.67000 150.044
62.84000 150.297
63.01000 154.986
63.18000 147.824
63.35000 154.582
63.52000 158.130
63.69000 157.235
63.86000 153.660
64.03000 166.606
64.20000 176.903
64.37000 161.247
64.54000 183.528
64.71000 185.636
64.88000 208.215
65.05000 254.066
65.22000 378.586
65.39000 486.363
65.56000 499.631
65.73000 828.706
65.90000 1587.060
66.07000 494.136
66.24000 374.112
66.41000 584.936
66.58000 420.230
66.75000 370.946
66.92000 391.394
67.09000 402.887
67.26000 427.315
67.43000 455.983
67.60000 502.990
67.77000 538.674
67.94000 590.706
68.11000 658.844
68.28000 746.618
68.45000 919.186
68.62000 1346.626
68.79000 2692.373
68.96000 19536.184
69.13000 92846.406
69.30000 55068.211
69.47000 13765.168
69.64000 1688.320
69.81000 1099.017
69.98000 842.817
70.00000 799.472

File: BTO_Mapping_Theta2Theta_22-09-2025_001_40_-40-000_0-000.xy
20.00000 581.128
20.17000 562.826
20.34000 592.916
20.51000 565.542
20.68000 571.910
20.85000 572.607
21.02000 567.598
21.19000 573.847
21.36000 609.173
21.53000 600.334
21.70000 743.328
21.87000 1161.572
22.04000 1138.096
22.21000 740.248
22.38000 595.715
22.55000 554.495
22.72000 525.267
22.89000 496.714
23.06000 536.359
23.23000 525.299
23.40000 517.969
23.57000 514.791
23.74000 521.334
23.91000 517.301
24.08000 516.584
24.25000 496.729
24.42000 490.299
24.59000 500.550
24.76000 497.356
24.93000 486.673
25.10000 486.055
25.27000 478.901
25.44000 480.370
25.61000 497.132
25.78000 471.329
25.95000 469.936
26.12000 453.402
26.29000 466.158
26.46000 461.026
26.63000 471.395
26.80000 468.023
26.97000 462.546
27.14000 460.651
27.31000 456.160
27.48000 454.758
27.65000 448.855
27.82000 453.304
27.99000 450.541
28.16000 457.387
28.33000 462.720
28.50000 421.828
28.67000 454.969
28.84000 440.429
29.01000 441.348
29.18000 430.104
29.35000 424.519
29.52000 440.786
29.69000 424.139
29.86000 472.817
30.03000 454.641
30.20000 440.711
30.37000 429.556
30.54000 457.235
30.71000 465.277
30.88000 536.603
31.05000 1336.829
31.22000 4229.780
31.39000 2823.849
31.56000 861.886
31.73000 541.893
31.90000 468.845
32.07000 418.517
32.24000 428.326
32.41000 406.889
32.58000 391.201
32.75000 391.843
32.92000 433.950
33.09000 402.009
33.26000 359.764
33.43000 340.714
33.60000 353.488
33.77000 348.024
33.94000 343.240
34.11000 331.507
34.28000 361.152
34.45000 342.391
34.62000 344.061
34.79000 324.425
34.96000 333.541
35.13000 333.217
35.30000 325.693
35.47000 314.453
35.64000 313.281
35.81000 323.045
35.98000 314.089
36.15000 312.086
36.32000 331.427
36.49000 319.228
36.66000 323.729
36.83000 336.609
37.00000 341.710
37.17000 332.591
37.34000 316.623
37.51000 315.395
37.68000 308.300
37.85000 323.026
38.02000 314.044
38.19000 359.377
38.36000 431.173
38.53000 501.220
38.70000 457.322
38.87000 355.802
39.04000 310.557
39.21000 288.884
39.38000 281.069
39.55000 280.291
39.72000 273.804
39.89000 272.595
40.06000 270.251
40.23000 271.407
40.40000 270.323
40.57000 275.065
40.74000 268.228
40.91000 261.698
41.08000 271.519
41.25000 258.998
41.42000 253.080
41.59000 253.434
41.76000 247.280
41.93000 248.219
42.10000 260.462
42.27000 228.247
42.44000 252.843
42.61000 249.370
42.78000 237.692
42.95000 254.237
43.12000 245.382
43.29000 237.171
43.46000 242.092
43.63000 237.687
43.80000 248.440
43.97000 256.016
44.14000 250.990
44.31000 280.685
44.48000 370.454
44.65000 655.000
44.82000 876.714
44.99000 729.390
45.16000 488.481
45.33000 372.603
45.50000 304.739
45.67000 261.279
45.84000 240.319
46.01000 223.950
46.18000 231.762
46.35000 213.689
46.52000 215.058
46.69000 197.869
46.86000 212.257
47.03000 199.682
47.20000 199.797
47.37000 192.176
47.54000 194.271
47.71000 182.807
47.88000 183.540
48.05000 187.991
48.22000 182.254
48.39000 190.814
48.56000 189.872
48.73000 185.465
48.90000 202.322
49.07000 180.961
49.24000 177.339
49.41000 192.732
49.58000 189.628
49.75000 173.277
49.92000 189.589
50.09000 188.479
50.26000 219.920
50.43000 296.957
50.60000 256.493
50.77000 205.623
50.94000 195.651
51.11000 187.869
51.28000 183.913
51.45000 179.731
51.62000 176.009
51.79000 165.315
51.96000 161.322
52.13000 171.250
52.30000 163.788
52.47000 168.586
52.64000 171.465
52.81000 165.148
52.98000 180.723
53.15000 174.215
53.32000 175.279
53.49000 170.460
53.66000 167.212
53.83000 152.118
54.00000 165.564
54.17000 168.210
54.34000 155.534
54.51000 169.720
54.68000 157.389
54.85000 164.968
55.02000 177.596
55.19000 191.081
55.36000 282.717
55.53000 595.082
55.70000 696.282
55.87000 451.590
56.04000 264.571
56.21000 224.482
56.38000 173.465
56.55000 173.353
56.72000 159.834
56.89000 160.134
57.06000 145.560
57.23000 150.469
57.40000 158.404
57.57000 150.267
57.74000 150.973
57.91000 154.942
58.08000 147.904
58.25000 144.979
58.42000 141.574
58.59000 135.913
58.76000 135.249
58.93000 148.999
59.10000 137.284
59.27000 143.227
59.44000 143.682
59.61000 136.646
59.78000 138.177
59.95000 129.245
60.12000 140.470
60.29000 141.970
60.46000 132.901
60.63000 142.549
60.80000 140.908
60.97000 152.843
61.14000 140.658
61.31000 150.736
61.48000 147.586
61.65000 322.685
61.82000 256.175
61.99000 160.734
62.16000 148.462
62.33000 140.221
62.50000 147.086
62.67000 147.458
62.84000 153.285
63.01000 151.927
63.18000 147.101
63.35000 150.011
63.52000 152.424
63.69000 151.726
63.86000 157.608
64.03000 161.718
64.20000 170.947
64.37000 163.517
64.54000 158.405
64.71000 179.896
64.88000 216.512
65.05000 336.692
65.22000 453.855
65.39000 414.122
65.56000 350.347
65.73000 660.213
65.90000 1430.012
66.07000 459.512
66.24000 344.687
66.41000 529.007
66.58000 382.491
66.75000 341.753
66.92000 372.076
67.09000 373.936
67.26000 425.081
67.43000 451.503
67.60000 468.657
67.77000 526.153
67.94000 581.551
68.11000 615.353
68.28000 707.316
68.45000 829.474
68.62000 1175.426
68.79000 2402.647
68.96000 15170.664
69.13000 84844.859
69.30000 52492.145
69.47000 14592.401
69.64000 1641.706
69.81000 1014.945
69.98000 811.356
70.00000 765.866

File: BTO_Mapping_Theta2Theta_22-09-2025_001_42_-9-010_-4-339.xy
20.00000 574.010
20.17000 559.136
20.34000 583.308
20.51000 564.055
20.68000 578.887
20.85000 574.119
21.02000 574.625
21.19000 571.233
21.36000 550.312
21.53000 573.991
21.70000 601.117
21.87000 712.975
22.04000 852.834
22.21000 762.905
22.38000 625.413
22.55000 573.646
22.72000 560.135
22.89000 508.305
23.06000 517.526
23.23000 514.095
23.40000 524.769
23.57000 500.989
23.74000 496.151
23.91000 501.747
24.08000 486.302
24.25000 500.207
24.42000 494.053
24.59000 484.839
24.76000 485.879
24.93000 486.360
25.10000 477.676
25.27000 494.630
25.44000 484.013
25.61000 482.434
25.78000 501.202
25.95000 479.498
26.12000 469.560
26.29000 472.800
26.46000 459.827
26.63000 446.808
26.80000 444.907
26.97000 454.643
27.14000 423.916
27.31000 454.663
27.48000 462.011
27.65000 444.025
27.82000 432.328
27.99000 443.413
28.16000 437.700
28.33000 432.354
28.50000 428.151
28.67000 416.019
28.84000 432.790
29.01000 410.753
29.18000 413.529
29.35000 412.954
29.52000 427.785
29.69000 433.683
29.86000 446.984
30.03000 443.361
30.20000 447.923
30.37000 441.447
30.54000 438.544
30.71000 463.460
30.88000 514.628
31.05000 737.029
31.22000 1913.049
31.39000 3396.541
31.56000 2008.238
31.73000 823.135
31.90000 521.661
32.07000 427.535
32.24000 429.482
32.41000 390.513
32.58000 395.118
32.75000 411.610
32.92000 467.046
33.09000 401.679
33.26000 374.982
33.43000 372.305
33.60000 350.309
33.77000 362.576
33.94000 342.170
34.11000 335.135
34.28000 348.764
34.45000 336.130
34.62000 328.410
34.79000 329.747
34.96000 326.165
35.13000 324.758
35.30000 314.022
35.47000 310.464
35.64000 319.135
35.81000 314.736
35.98000 311.250
36.15000 299.661
36.32000 300.830
36.49000 300.654
36.66000 318.365
36.83000 306.701
37.00000 303.801
37.17000 310.932
37.34000 306.773
37.51000 297.492
37.68000 303.493
37.85000 309.979
38.02000 310.328
38.19000 313.741
38.36000 370.690
38.53000 593.708
38.70000 906.315
38.87000 647.327
39.04000 383.144
39.21000 322.028
39.38000 303.417
39.55000 277.153
39.72000 269.217
39.89000 279.448
40.06000 262.035
40.23000 275.621
40.40000 246.908
40.57000 270.881
40.74000 256.986
40.91000 271.956
41.08000 249.294
41.25000 245.618
41.42000 253.241
41.59000 236.178
41.76000 247.025
41.93000 242.388
42.10000 243.217
42.27000 241.136
42.44000 242.959
42.61000 235.976
42.78000 232.566
42.95000 244.390
43.12000 224.617
43.29000 228.080
43.46000 241.843
43.63000 235.198
43.80000 217.294
43.97000 250.993
44.14000 242.891
44.31000 240.003
44.48000 248.800
44.65000 285.335
44.82000 359.997
44.99000 498.379
45.16000 434.730
45.33000 355.167
45.50000 292.813
45.67000 253.535
45.84000 235.937
46.01000 219.715
46.18000 197.700
46.35000 198.791
46.52000 214.466
46.69000 220.710
46.86000 213.523
47.03000 202.485
47.20000 196.659
47.37000 198.644
47.54000 183.478
47.71000 186.566
47.88000 188.400
48.05000 183.673
48.22000 186.249
48.39000 183.563
48.56000 194.242
48.73000 188.554
48.90000 184.109
49.07000 176.045
49.24000 174.017
49.41000 189.639
49.58000 184.131
49.75000 160.672
49.92000 181.988
50.09000 178.022
50.26000 191.128
50.43000 200.385
50.60000 270.689
50.77000 263.674
50.94000 226.930
51.11000 195.674
51.28000 187.785
51.45000 171.840
51.62000 159.586
51.79000 153.458
51.96000 173.261
52.13000 178.159
52.30000 165.080
52.47000 167.116
52.64000 162.190
52.81000 161.950
52.98000 157.756
53.15000 165.286
53.32000 160.130
53.49000 176.124
53.66000 154.986
53.83000 157.828
54.00000 154.805
54.17000 156.710
54.34000 161.622
54.51000 162.547
54.68000 146.061
54.85000 170.158
55.02000 170.861
55.19000 171.827
55.36000 187.833
55.53000 227.251
55.70000 359.177
55.87000 562.544
56.04000 539.083
56.21000 362.323
56.38000 227.808
56.55000 193.599
56.72000 164.422
56.89000 151.782
57.06000 149.117
57.23000 150.479
57.40000 138.969
57.57000 140.010
57.74000 152.600
57.91000 146.566
58.08000 148.634
58.25000 142.261
58.42000 143.485
58.59000 134.086
58.76000 134.148
58.93000 150.346
59.10000 130.587
59.27000 136.026
59.44000 147.024
59.61000 140.127
59.78000 132.398
59.95000 135.963
60.12000 132.829
60.29000 131.455
60.46000 134.621
60.63000 130.169
60.80000 137.859
60.97000 142.056
61.14000 141.380
61.31000 144.138
61.48000 157.176
61.65000 351.165
61.82000 234.559
61.99000 146.795
62.16000 149.807
62.33000 150.099
62.50000 147.753
62.67000 145.399
62.84000 145.757
63.01000 146.088
63.18000 156.004
63.35000 147.756
63.52000 152.053
63.69000 154.655
63.86000 151.459
64.03000 161.438
64.20000 175.279
64.37000 170.534
64.54000 168.324
64.71000 179.350
64.88000 195.580
65.05000 206.524
65.22000 256.234
65.39000 343.086
65.56000 444.740
65.73000 895.976
65.90000 1609.741
66.07000 471.518
66.24000 392.399
66.41000 583.167
66.58000 412.885
66.75000 359.566
66.92000 377.202
67.09000 432.939
67.26000 437.705
67.43000 466.937
67.60000 509.831
67.77000 550.404
67.94000 617.755
68.11000 666.665
68.28000 733.704
68.45000 901.618
68.62000 1383.970
68.79000 2872.624
68.96000 21950.455
69.13000 92383.359
69.30000 54726.008
69.47000 13144.648
69.64000 1695.714
69.81000 1043.757
69.98000 839.171
70.00000 802.540