Folder: Master-Thesis/XRD/XRD/22-09-2025 Dep 2/XY Data (part 3)

File: BTO_Mapping_Theta2Theta_22-09-2025_001_22_-2-225_9-749.xy
20.00000 593.985
20.17000 589.019
20.34000 574.362
20.51000 557.153
20.68000 559.670
20.85000 565.806
21.02000 556.565
21.19000 541.130
21.36000 587.481
21.53000 549.903
21.70000 611.220
21.87000 693.977
22.04000 854.570
22.21000 747.766
22.38000 646.406
22.55000 554.527
22.72000 520.297
22.89000 508.003
23.06000 506.050
23.23000 516.393
23.40000 501.071
23.57000 530.133
23.74000 497.114
23.91000 504.447
24.08000 506.002
24.25000 490.656
24.42000 480.584
24.59000 473.337
24.76000 472.070
24.93000 481.684
25.10000 472.692
25.27000 483.945
25.44000 468.588
25.61000 466.974
25.78000 459.244
25.95000 462.381
26.12000 457.614
26.29000 466.723
26.46000 463.500
26.63000 458.265
26.80000 446.965
26.97000 454.599
27.14000 460.595
27.31000 442.937
27.48000 432.714
27.65000 441.269
27.82000 432.972
27.99000 436.531
28.16000 453.378
28.33000 437.481
28.50000 421.451
28.67000 413.694
28.84000 431.006
29.01000 437.130
29.18000 426.610
29.35000 408.360
29.52000 419.417
29.69000 418.301
29.86000 424.244
30.03000 466.433
30.20000 458.518
30.37000 442.192
30.54000 442.396
30.71000 465.237
30.88000 522.389
31.05000 761.538
31.22000 1879.787
31.39000 3487.126
31.56000 2035.548
31.73000 824.852
31.90000 534.593
32.07000 433.659
32.24000 430.985
32.41000 392.665
32.58000 399.874
32.75000 397.767
32.92000 430.037
33.09000 375.281
33.26000 360.798
33.43000 350.630
33.60000 340.019
33.77000 339.913
33.94000 358.114
34.11000 342.322
34.28000 343.382
34.45000 328.712
34.62000 332.403
34.79000 325.809
34.96000 328.022
35.13000 318.015
35.30000 301.519
35.47000 310.825
35.64000 311.559
35.81000 305.990
35.98000 313.756
36.15000 305.923
36.32000 306.288
36.49000 296.642
36.66000 311.778
36.83000 290.970
37.00000 301.398
37.17000 297.719
37.34000 293.313
37.51000 290.223
37.68000 301.621
37.85000 292.271
38.02000 307.761
38.19000 323.226
38.36000 370.427
38.53000 576.028
38.70000 942.459
38.87000 703.354
39.04000 377.235
39.21000 296.513
39.38000 303.661
39.55000 259.853
39.72000 269.747
39.89000 276.053
40.06000 266.168
40.23000 261.544
40.40000 269.956
40.57000 263.868
40.74000 261.380
40.91000 259.620
41.08000 255.374
41.25000 240.736
41.42000 253.902
41.59000 258.318
41.76000 243.493
41.93000 243.789
42.10000 259.520
42.27000 233.657
42.44000 229.755
42.61000 229.557
42.78000 235.488
42.95000 228.041
43.12000 221.471
43.29000 231.619
43.46000 225.678
43.63000 223.521
43.80000 224.038
43.97000 223.675
44.14000 241.397
44.31000 228.182
44.48000 253.429
44.65000 273.558
44.82000 327.128
44.99000 471.112
45.16000 427.511
45.33000 349.785
45.50000 305.141
45.67000 266.065
45.84000 235.512
46.01000 224.647
46.18000 213.796
46.35000 201.170
46.52000 207.366
46.69000 198.498
46.86000 202.705
47.03000 198.209
47.20000 195.278
47.37000 193.580
47.54000 185.350
47.71000 185.147
47.88000 193.759
48.05000 190.790
48.22000 191.552
48.39000 183.459
48.56000 178.339
48.73000 170.927
48.90000 181.438
49.07000 187.098
49.24000 180.583
49.41000 172.942
49.58000 183.178
49.75000 169.441
49.92000 180.973
50.09000 177.928
50.26000 181.411
50.43000 199.782
50.60000 237.567
50.77000 261.603
50.94000 222.114
51.11000 208.618
51.28000 183.528
51.45000 184.980
51.62000 165.299
51.79000 167.574
51.96000 173.295
52.13000 158.235
52.30000 165.486
52.47000 156.794
52.64000 152.009
52.81000 153.509
52.98000 157.964
53.15000 153.403
53.32000 164.312
53.49000 169.858
53.66000 165.724
53.83000 151.770
54.00000 160.200
54.17000 156.548
54.34000 152.388
54.51000 161.250
54.68000 160.914
54.85000 159.003
55.02000 158.124
55.19000 168.727
55.36000 180.637
55.53000 221.241
55.70000 331.595
55.87000 523.027
56.04000 540.295
56.21000 378.975
56.38000 248.784
56.55000 203.212
56.72000 173.255
56.89000 157.419
57.06000 145.239
57.23000 150.842
57.40000 144.463
57.57000 145.599
57.74000 133.365
57.91000 143.394
58.08000 152.873
58.25000 140.031
58.42000 137.311
58.59000 139.458
58.76000 138.411
58.93000 145.103
59.10000 130.309
59.27000 126.570
59.44000 140.310
59.61000 130.409
59.78000 133.029
59.95000 133.943
60.12000 141.219
60.29000 127.955
60.46000 140.614
60.63000 131.731
60.80000 140.405
60.97000 131.689
61.14000 138.100
61.31000 126.614
61.48000 149.405
61.65000 326.594
61.82000 217.943
61.99000 145.220
62.16000 146.801
62.33000 144.551
62.50000 143.681
62.67000 142.010
62.84000 145.247
63.01000 152.037
63.18000 152.667
63.35000 147.083
63.52000 145.801
63.69000 151.852
63.86000 150.511
64.03000 156.735
64.20000 159.299
64.37000 154.250
64.54000 174.349
64.71000 183.831
64.88000 192.117
65.05000 207.634
65.22000 255.178
65.39000 337.209
65.56000 445.265
65.73000 859.205
65.90000 1403.916
66.07000 442.609
66.24000 383.858
66.41000 530.497
66.58000 389.834
66.75000 362.379
66.92000 367.857
67.09000 411.983
67.26000 427.154
67.43000 446.795
67.60000 487.580
67.77000 530.733
67.94000 577.360
68.11000 646.939
68.28000 725.953
68.45000 831.816
68.62000 1280.179
68.79000 2653.084
68.96000 21001.389
69.13000 82997.781
69.30000 48069.469
69.47000 10937.541
69.64000 1554.931
69.81000 1016.187
69.98000 819.615
70.00000 788.555

File: BTO_Mapping_Theta2Theta_22-09-2025_001_26_-11-126_48-746.xy
20.00000 602.921
20.17000 616.618
20.34000 607.759
20.51000 609.182
20.68000 583.259
20.85000 630.762
21.02000 598.406
21.19000 598.140
21.36000 609.492
21.53000 592.062
21.70000 590.246
21.87000 598.607
22.04000 609.219
22.21000 584.734
22.38000 586.462
22.55000 580.672
22.72000 600.065
22.89000 572.858
23.06000 589.855
23.23000 576.227
23.40000 585.496
23.57000 581.851
23.74000 571.004
23.91000 585.290
24.08000 575.243
24.25000 566.792
24.42000 610.450
24.59000 593.705
24.76000 582.355
24.93000 592.005
25.10000 587.910
25.27000 576.643
25.44000 594.413
25.61000 604.943
25.78000 585.395
25.95000 585.021
26.12000 601.401
26.29000 595.494
26.46000 609.447
26.63000 610.320
26.80000 603.016
26.97000 582.719
27.14000 593.691
27.31000 622.140
27.48000 613.949
27.65000 604.161
27.82000 602.597
27.99000 613.033
28.16000 627.372
28.33000 588.284
28.50000 613.567
28.67000 600.628
28.84000 617.128
29.01000 624.408
29.18000 642.112
29.35000 610.696
29.52000 622.374
29.69000 646.799
29.86000 634.091
30.03000 626.823
30.20000 641.124
30.37000 671.922
30.54000 667.711
30.71000 662.308
30.88000 652.249
31.05000 669.143
31.22000 665.236
31.39000 662.756
31.56000 685.302
31.73000 664.717
31.90000 662.986
32.07000 691.888
32.24000 676.466
32.41000 672.401
32.58000 697.492
32.75000 689.906
32.92000 703.871
33.09000 714.655
33.26000 708.271
33.43000 731.538
33.60000 739.105
33.77000 709.417
33.94000 715.510
34.11000 744.481
34.28000 736.036
34.45000 723.543
34.62000 750.717
34.79000 770.102
34.96000 752.215
35.13000 786.999
35.30000 748.229
35.47000 747.056
35.64000 773.238
35.81000 761.176
35.98000 779.926
36.15000 775.476
36.32000 796.092
36.49000 795.388
36.66000 828.094
36.83000 819.151
37.00000 813.455
37.17000 826.584
37.34000 825.393
37.51000 843.676
37.68000 836.179
37.85000 839.781
38.02000 851.426
38.19000 844.119
38.36000 886.348
38.53000 866.583
38.70000 860.756
38.87000 883.567
39.04000 885.037
39.21000 892.744
39.38000 877.780
39.55000 918.953
39.72000 919.152
39.89000 909.782
40.06000 929.299
40.23000 927.552
40.40000 934.367
40.57000 936.468
40.74000 936.896
40.91000 947.801
41.08000 989.094
41.25000 946.723
41.42000 1013.498
41.59000 979.538
41.76000 987.727
41.93000 1001.149
42.10000 986.633
42.27000 1034.519
42.44000 1043.781
42.61000 1061.177
42.78000 1065.280
42.95000 1038.155
43.12000 1050.233
43.29000 1055.854
43.46000 1077.166
43.63000 1155.203
43.80000 1284.346
43.97000 1787.475
44.14000 2942.580
44.31000 3359.182
44.48000 2174.104
44.65000 1434.796
44.82000 1231.858
44.99000 1187.611
45.16000 1139.968
45.33000 1118.875
45.50000 1125.454
45.67000 1115.923
45.84000 1123.552
46.01000 1152.765
46.18000 1105.457
46.35000 1123.017
46.52000 1146.602
46.69000 1169.757
46.86000 1170.157
47.03000 1148.744
47.20000 1185.276
47.37000 1152.912
47.54000 1180.291
47.71000 1203.649
47.88000 1176.050
48.05000 1184.319
48.22000 1210.555
48.39000 1200.292
48.56000 1233.808
48.73000 1216.234
48.90000 1232.211
49.07000 1243.171
49.24000 1259.295
49.41000 1265.596
49.58000 1232.182
49.75000 1255.172
49.92000 1256.290
50.09000 1274.515
50.26000 1236.034
50.43000 1284.190
50.60000 1359.332
50.77000 1286.928
50.94000 1303.512
51.11000 1338.049
51.28000 1323.850
51.45000 1327.691
51.62000 1337.612
51.79000 1320.846
51.96000 1316.809
52.13000 1381.187
52.30000 1342.115
52.47000 1363.514
52.64000 1362.087
52.81000 1356.940
52.98000 1373.397
53.15000 1382.623
53.32000 1413.245
53.49000 1396.726
53.66000 1404.128
53.83000 1386.885
54.00000 1388.654
54.17000 1416.568
54.34000 1424.319
54.51000 1445.785
54.68000 1440.299
54.85000 1432.347
55.02000 1426.632
55.19000 1427.279
55.36000 1448.854
55.53000 1451.329
55.70000 1448.043
55.87000 1469.676
56.04000 1479.878
56.21000 1445.556
56.38000 1476.934
56.55000 1491.009
56.72000 1501.340
56.89000 1491.574
57.06000 1503.675
57.23000 1478.122
57.40000 1498.648
57.57000 1494.184
57.74000 1510.695
57.91000 1548.030
58.08000 1546.252
58.25000 1547.332
58.42000 1512.210
58.59000 1550.168
58.76000 1548.991
58.93000 1538.270
59.10000 1549.021
59.27000 1565.958
59.44000 1547.567
59.61000 1546.236
59.78000 1566.622
59.95000 1578.402
60.12000 1575.296
60.29000 1630.983
60.46000 1576.594
60.63000 1580.577
60.80000 1598.619
60.97000 1621.440
61.14000 1664.650
61.31000 1624.140
61.48000 1632.634
61.65000 1657.002
61.82000 1622.419
61.99000 1639.295
62.16000 1633.697
62.33000 1618.792
62.50000 1662.326
62.67000 1666.193
62.84000 1703.340
63.01000 1720.613
63.18000 1663.344
63.35000 1648.088
63.52000 1672.385
63.69000 1680.065
63.86000 1704.037
64.03000 1726.766
64.20000 1774.089
64.37000 1868.012
64.54000 2024.909
64.71000 1928.889
64.88000 1889.914
65.05000 1769.492
65.22000 1777.864
65.39000 1716.450
65.56000 1763.654
65.73000 1753.426
65.90000 1783.336
66.07000 1739.809
66.24000 1755.966
66.41000 1744.175
66.58000 1772.333
66.75000 1753.898
66.92000 1738.289
67.09000 1785.179
67.26000 1729.795
67.43000 1774.535
67.60000 1818.860
67.77000 1806.605
67.94000 1789.288
68.11000 1828.766
68.28000 1812.966
68.45000 1803.583
68.62000 1823.963
68.79000 1870.294
68.96000 2490.278
69.13000 4086.088
69.30000 3011.388
69.47000 2056.095
69.64000 1857.803
69.81000 1835.599
69.98000 1819.422
70.00000 1844.970

File: BTO_Mapping_Theta2Theta_22-09-2025_001_28_-12-470_15-637.xy
20.00000 559.256
20.17000 588.732
20.34000 551.529
20.51000 560.920
20.68000 539.257
20.85000 560.646
21.02000 561.176
21.19000 597.236
21.36000 567.089
21.53000 579.406
21.70000 592.843
21.87000 754.111
22.04000 884.410
22.21000 730.110
22.38000 616.482
22.55000 573.652
22.72000 505.380
22.89000 536.780
23.06000 511.670
23.23000 500.046
23.40000 522.445
23.57000 512.265
23.74000 497.905
23.91000 481.620
24.08000 491.563
24.25000 513.597
24.42000 482.464
24.59000 496.764
24.76000 487.621
24.93000 486.649
25.10000 484.004
25.27000 478.242
25.44000 486.155
25.61000 480.982
25.78000 479.632
25.95000 470.069
26.12000 470.036
26.29000 457.320
26.46000 464.509
26.63000 451.295
26.80000 467.242
26.97000 454.019
27.14000 442.295
27.31000 442.460
27.48000 452.304
27.65000 444.442
27.82000 433.950
27.99000 452.132
28.16000 425.798
28.33000 457.481
28.50000 431.812
28.67000 429.693
28.84000 417.696
29.01000 416.020
29.18000 412.727
29.35000 430.895
29.52000 420.750
29.69000 431.991
29.86000 429.284
30.03000 462.602
30.20000 454.880
30.37000 434.798
30.54000 440.885
30.71000 464.862
30.88000 507.263
31.05000 716.108
31.22000 1883.872
31.39000 3375.402
31.56000 1940.964
31.73000 785.912
31.90000 528.005
32.07000 437.598
32.24000 421.000
32.41000 405.404
32.58000 400.275
32.75000 399.390
32.92000 437.249
33.09000 376.662
33.26000 350.048
33.43000 345.124
33.60000 356.580
33.77000 349.022
33.94000 344.163
34.11000 345.948
34.28000 339.150
34.45000 345.288
34.62000 326.793
34.79000 321.422
34.96000 319.226
35.13000 312.151
35.30000 332.550
35.47000 306.279
35.64000 312.054
35.81000 308.710
35.98000 312.001
36.15000 311.801
36.32000 306.548
36.49000 321.291
36.66000 307.329
36.83000 294.900
37.00000 309.799
37.17000 304.117
37.34000 297.168
37.51000 300.579
37.68000 290.747
37.85000 304.031
38.02000 285.605
38.19000 331.413
38.36000 362.375
38.53000 613.036
38.70000 866.906
38.87000 618.062
39.04000 382.543
39.21000 325.514
39.38000 297.813
39.55000 281.273
39.72000 283.057
39.89000 279.865
40.06000 267.629
40.23000 265.769
40.40000 273.997
40.57000 243.591
40.74000 277.267
40.91000 268.476
41.08000 252.800
41.25000 240.091
41.42000 243.262
41.59000 231.829
41.76000 248.678
41.93000 244.368
42.10000 243.328
42.27000 237.404
42.44000 238.953
42.61000 241.298
42.78000 230.422
42.95000 247.940
43.12000 234.347
43.29000 228.673
43.46000 232.185
43.63000 229.297
43.80000 216.257
43.97000 232.273
44.14000 229.301
44.31000 241.245
44.48000 244.558
44.65000 289.028
44.82000 390.123
44.99000 504.635
45.16000 454.627
45.33000 375.573
45.50000 296.044
45.67000 252.499
45.84000 231.155
46.01000 218.855
46.18000 224.241
46.35000 190.986
46.52000 204.540
46.69000 202.543
46.86000 202.379
47.03000 195.616
47.20000 196.526
47.37000 187.360
47.54000 202.699
47.71000 186.617
47.88000 189.839
48.05000 198.724
48.22000 193.107
48.39000 188.420
48.56000 177.460
48.73000 191.981
48.90000 186.805
49.07000 185.848
49.24000 179.210
49.41000 177.079
49.58000 180.142
49.75000 181.437
49.92000 179.402
50.09000 175.406
50.26000 183.878
50.43000 211.010
50.60000 280.996
50.77000 260.355
50.94000 228.766
51.11000 199.546
51.28000 185.695
51.45000 184.045
51.62000 174.470
51.79000 174.196
51.96000 173.140
52.13000 156.876
52.30000 168.040
52.47000 158.713
52.64000 167.584
52.81000 165.613
52.98000 166.918
53.15000 172.790
53.32000 155.182
53.49000 160.823
53.66000 158.883
53.83000 163.066
54.00000 159.940
54.17000 161.231
54.34000 161.764
54.51000 148.060
54.68000 154.401
54.85000 169.853
55.02000 151.478
55.19000 173.392
55.36000 190.924
55.53000 230.310
55.70000 349.914
55.87000 536.590
56.04000 532.326
56.21000 329.591
56.38000 230.761
56.55000 190.766
56.72000 174.122
56.89000 159.589
57.06000 152.503
57.23000 139.115
57.40000 142.767
57.57000 153.943
57.74000 141.275
57.91000 156.028
58.08000 145.704
58.25000 153.906
58.42000 148.133
58.59000 141.021
58.76000 138.698
58.93000 141.779
59.10000 136.962
59.27000 140.351
59.44000 132.597
59.61000 140.051
59.78000 138.859
59.95000 136.197
60.12000 133.219
60.29000 124.091
60.46000 133.126
60.63000 135.652
60.80000 126.818
60.97000 140.894
61.14000 137.850
61.31000 142.782
61.48000 145.414
61.65000 367.228
61.82000 228.854
61.99000 152.874
62.16000 147.096
62.33000 151.319
62.50000 142.400
62.67000 147.092
62.84000 156.645
63.01000 143.212
63.18000 138.413
63.35000 159.133
63.52000 158.376
63.69000 158.951
63.86000 161.831
64.03000 170.070
64.20000 159.713
64.37000 168.847
64.54000 182.842
64.71000 187.812
64.88000 198.895
65.05000 218.375
65.22000 270.119
65.39000 333.545
65.56000 441.577
65.73000 967.961
65.90000 1646.715
66.07000 483.552
66.24000 383.906
66.41000 581.823
66.58000 420.864
66.75000 370.862
66.92000 387.836
67.09000 420.099
67.26000 446.565
67.43000 496.345
67.60000 497.044
67.77000 549.169
67.94000 629.859
68.11000 683.473
68.28000 773.813
68.45000 909.954
68.62000 1423.750
68.79000 2990.238
68.96000 25257.354
69.13000 96908.063
69.30000 55815.879
69.47000 12490.304
69.64000 1744.221
69.81000 1106.953
69.98000 863.349
70.00000 851.653

File: BTO_Mapping_Theta2Theta_22-09-2025_001_29_-18-705_23-455.xy
20.00000 565.790
20.17000 545.059
20.34000 551.676
20.51000 569.186
20.68000 558.095
20.85000 539.361
21.02000 564.528
21.19000 580.812
21.36000 554.030
21.53000 553.518
21.70000 628.643
21.87000 744.821
22.04000 890.041
22.21000 726.928
22.38000 603.908
22.55000 573.744
22.72000 527.436
22.89000 540.344
23.06000 521.336
23.23000 498.275
23.40000 514.928
23.57000 507.592
23.74000 492.702
23.91000 510.938
24.08000 517.795
24.25000 511.143
24.42000 493.778
24.59000 476.313
24.76000 477.858
24.93000 477.397
25.10000 478.256
25.27000 460.770
25.44000 474.925
25.61000 463.761
25.78000 474.776
25.95000 451.251
26.12000 468.511
26.29000 470.277
26.46000 450.815
26.63000 482.432
26.80000 458.733
26.97000 466.858
27.14000 444.697
27.31000 430.510
27.48000 453.339
27.65000 455.435
27.82000 435.476
27.99000 428.441
28.16000 440.507
28.33000 425.228
28.50000 406.003
28.67000 423.154
28.84000 423.394
29.01000 405.672
29.18000 414.766
29.35000 425.194
29.52000 408.069
29.69000 417.683
29.86000 432.081
30.03000 458.685
30.20000 452.581
30.37000 435.621
30.54000 441.692
30.71000 472.504
30.88000 488.423
31.05000 708.492
31.22000 1982.848
31.39000 3578.727
31.56000 2039.105
31.73000 812.331
31.90000 500.293
32.07000 438.144
32.24000 416.654
32.41000 407.749
32.58000 376.683
32.75000 403.259
32.92000 431.003
33.09000 392.695
33.26000 356.289
33.43000 355.765
33.60000 347.020
33.77000 343.227
33.94000 355.936
34.11000 334.202
34.28000 344.296
34.45000 342.962
34.62000 328.249
34.79000 315.854
34.96000 332.731
35.13000 315.422
35.30000 319.119
35.47000 310.472
35.64000 323.282
35.81000 314.133
35.98000 310.606
36.15000 311.586
36.32000 302.590
36.49000 312.180
36.66000 301.453
36.83000 306.102
37.00000 303.974
37.17000 317.120
37.34000 304.733
37.51000 301.101
37.68000 308.111
37.85000 298.803
38.02000 296.978
38.19000 332.788
38.36000 376.748
38.53000 592.109
38.70000 814.923
38.87000 562.052
39.04000 369.023
39.21000 304.975
39.38000 297.006
39.55000 287.805
39.72000 278.895
39.89000 271.953
40.06000 280.128
40.23000 266.941
40.40000 275.538
40.57000 256.712
40.74000 266.816
40.91000 246.929
41.08000 267.736
41.25000 254.232
41.42000 252.452
41.59000 244.965
41.76000 236.236
41.93000 262.834
42.10000 244.050
42.27000 237.865
42.44000 236.971
42.61000 235.918
42.78000 231.977
42.95000 234.557
43.12000 240.388
43.29000 232.412
43.46000 222.754
43.63000 236.047
43.80000 233.875
43.97000 238.351
44.14000 223.134
44.31000 240.564
44.48000 251.984
44.65000 286.605
44.82000 382.575
44.99000 516.582
45.16000 465.537
45.33000 341.842
45.50000 289.590
45.67000 261.526
45.84000 246.226
46.01000 223.669
46.18000 220.842
46.35000 204.764
46.52000 213.777
46.69000 195.472
46.86000 212.799
47.03000 187.091
47.20000 190.550
47.37000 190.292
47.54000 188.267
47.71000 196.741
47.88000 200.739
48.05000 193.804
48.22000 185.183
48.39000 184.741
48.56000 183.961
48.73000 179.517
48.90000 187.203
49.07000 184.850
49.24000 168.721
49.41000 186.633
49.58000 179.398
49.75000 197.461
49.92000 178.496
50.09000 185.359
50.26000 192.869
50.43000 228.641
50.60000 276.638
50.77000 281.856
50.94000 248.181
51.11000 211.278
51.28000 180.493
51.45000 172.268
51.62000 174.006
51.79000 169.816
51.96000 168.221
52.13000 162.866
52.30000 157.786
52.47000 158.111
52.64000 158.123
52.81000 158.587
52.98000 155.005
53.15000 159.111
53.32000 165.784
53.49000 162.211
53.66000 156.828
53.83000 169.817
54.00000 162.794
54.17000 165.980
54.34000 153.967
54.51000 165.225
54.68000 147.724
54.85000 161.149
55.02000 159.924
55.19000 177.173
55.36000 195.752
55.53000 234.612
55.70000 375.846
55.87000 578.430
56.04000 529.396
56.21000 331.477
56.38000 232.671
56.55000 198.315
56.72000 166.114
56.89000 160.665
57.06000 150.234
57.23000 158.462
57.40000 156.539
57.57000 142.316
57.74000 154.183
57.91000 136.930
58.08000 136.974
58.25000 147.997
58.42000 137.645
58.59000 138.574
58.76000 139.133
58.93000 127.880
59.10000 133.708
59.27000 139.496
59.44000 146.159
59.61000 138.205
59.78000 135.375
59.95000 139.601
60.12000 140.950
60.29000 135.809
60.46000 142.262
60.63000 140.983
60.80000 139.548
60.97000 136.193
61.14000 134.442
61.31000 141.669
61.48000 154.751
61.65000 360.913
61.82000 233.125
61.99000 146.213
62.16000 152.643
62.33000 139.230
62.50000 137.360
62.67000 155.202
62.84000 155.017
63.01000 144.451
63.18000 155.344
63.35000 150.166
63.52000 143.481
63.69000 158.869
63.86000 147.696
64.03000 159.920
64.20000 166.313
64.37000 171.837
64.54000 171.868
64.71000 180.516
64.88000 184.227
65.05000 223.319
65.22000 260.525
65.39000 362.036
65.56000 467.615
65.73000 979.155
65.90000 1615.090
66.07000 488.928
66.24000 386.893
66.41000 583.009
66.58000 410.502
66.75000 372.460
66.92000 389.348
67.09000 420.855
67.26000 438.520
67.43000 490.084
67.60000 500.175
67.77000 584.598
67.94000 624.732
68.11000 706.356
68.28000 773.499
68.45000 916.599
68.62000 1441.714
68.79000 2999.406
68.96000 25063.270
69.13000 97266.086
69.30000 55922.313
69.47000 12578.437
69.64000 1719.779
69.81000 1059.436
69.98000 836.629
70.00000 836.731

File: BTO_Mapping_Theta2Theta_22-09-2025_001_30_-24-940_31-273.xy
20.00000 561.213
20.17000 577.258
20.34000 565.599
20.51000 555.667
20.68000 552.322
20.85000 563.082
21.02000 557.337
21.19000 555.122
21.36000 555.848
21.53000 555.353
21.70000 583.529
21.87000 700.193
22.04000 830.220
22.21000 701.959
22.38000 611.390
22.55000 556.094
22.72000 518.599
22.89000 532.767
23.06000 524.231
23.23000 513.890
23.40000 498.744
23.57000 513.866
23.74000 514.162
23.91000 503.621
24.08000 492.382
24.25000 519.089
24.42000 498.716
24.59000 489.602
24.76000 488.228
24.93000 494.905
25.10000 483.511
25.27000 479.527
25.44000 488.053
25.61000 472.988
25.78000 476.034
25.95000 462.785
26.12000 469.493
26.29000 442.195
26.46000 456.953
26.63000 456.076
26.80000 469.397
26.97000 455.246
27.14000 442.747
27.31000 460.493
27.48000 444.167
27.65000 444.802
27.82000 435.920
27.99000 445.452
28.16000 450.091
28.33000 459.879
28.50000 450.873
28.67000 419.826
28.84000 407.705
29.01000 419.497
29.18000 409.605
29.35000 418.293
29.52000 404.563
29.69000 410.929
29.86000 427.092
30.03000 472.288
30.20000 455.044
30.37000 433.837
30.54000 440.032
30.71000 467.334
30.88000 511.620
31.05000 725.383
31.22000 2424.165
31.39000 4595.195
31.56000 2509.146
31.73000 888.127
31.90000 518.364
32.07000 439.495
32.24000 424.282
32.41000 415.615
32.58000 385.829
32.75000 382.119
32.92000 429.778
33.09000 385.007
33.26000 361.484
33.43000 350.839
33.60000 346.876
33.77000 357.526
33.94000 358.022
34.11000 345.527
34.28000 352.378
34.45000 336.816
34.62000 326.470
34.79000 336.019
34.96000 322.878
35.13000 312.379
35.30000 328.813
35.47000 314.203
35.64000 300.148
35.81000 327.630
35.98000 321.291
36.15000 317.093
36.32000 303.109
36.49000 309.118
36.66000 291.328
36.83000 291.786
37.00000 325.744
37.17000 322.372
37.34000 297.701
37.51000 275.187
37.68000 292.384
37.85000 303.365
38.02000 303.520
38.19000 322.304
38.36000 381.611
38.53000 564.404
38.70000 738.620
38.87000 545.950
39.04000 359.343
39.21000 313.818
39.38000 291.306
39.55000 277.070
39.72000 262.281
39.89000 269.040
40.06000 268.945
40.23000 275.953
40.40000 275.147
40.57000 254.715
40.74000 258.273
40.91000 240.267
41.08000 251.664
41.25000 252.852
41.42000 251.147
41.59000 256.671
41.76000 243.790
41.93000 251.619
42.10000 243.118
42.27000 234.678
42.44000 239.266
42.61000 221.428
42.78000 241.121
42.95000 233.956
43.12000 236.901
43.29000 239.756
43.46000 222.344
43.63000 230.720
43.80000 225.178
43.97000 230.269
44.14000 226.901
44.31000 230.669
44.48000 252.120
44.65000 281.908
44.82000 380.980
44.99000 453.986
45.16000 398.798
45.33000 323.248
45.50000 274.854
45.67000 256.882
45.84000 238.650
46.01000 214.384
46.18000 214.404
46.35000 213.174
46.52000 202.771
46.69000 204.337
46.86000 204.616
47.03000 199.195
47.20000 199.348
47.37000 191.574
47.54000 198.898
47.71000 178.067
47.88000 197.784
48.05000 180.414
48.22000 197.037
48.39000 183.912
48.56000 191.202
48.73000 185.796
48.90000 178.798
49.07000 191.231
49.24000 180.643
49.41000 185.585
49.58000 183.811
49.75000 198.632
49.92000 165.915
50.09000 189.209
50.26000 185.820
50.43000 224.165
50.60000 284.113
50.77000 268.345
50.94000 243.405
51.11000 209.825
51.28000 178.153
51.45000 166.980
51.62000 171.915
51.79000 183.733
51.96000 164.628
52.13000 161.306
52.30000 158.224
52.47000 159.625
52.64000 158.066
52.81000 167.249
52.98000 158.798
53.15000 164.510
53.32000 164.950
53.49000 174.805
53.66000 162.342
53.83000 159.615
54.00000 150.519
54.17000 163.079
54.34000 157.754
54.51000 160.791
54.68000 170.554
54.85000 162.098
55.02000 168.362
55.19000 172.348
55.36000 177.124
55.53000 243.730
55.70000 392.189
55.87000 553.924
56.04000 484.008
56.21000 339.012
56.38000 216.126
56.55000 184.160
56.72000 162.070
56.89000 151.976
57.06000 149.549
57.23000 163.353
57.40000 145.357
57.57000 154.366
57.74000 142.476
57.91000 143.932
58.08000 150.584
58.25000 140.506
58.42000 147.691
58.59000 143.625
58.76000 141.763
58.93000 133.252
59.10000 133.359
59.27000 136.168
59.44000 136.193
59.61000 135.835
59.78000 129.805
59.95000 138.825
60.12000 132.416
60.29000 135.402
60.46000 129.737
60.63000 140.582
60.80000 142.273
60.97000 133.334
61.14000 143.421
61.31000 141.560
61.48000 163.312
61.65000 373.305
61.82000 246.173
61.99000 152.402
62.16000 149.860
62.33000 140.395
62.50000 149.514
62.67000 137.724
62.84000 150.480
63.01000 151.388
63.18000 148.015
63.35000 146.549
63.52000 153.908
63.69000 145.790
63.86000 153.174
64.03000 162.138
64.20000 166.327
64.37000 171.068
64.54000 179.333
64.71000 182.141
64.88000 181.440
65.05000 224.017
65.22000 269.782
65.39000 391.066
65.56000 511.211
65.73000 958.313
65.90000 1697.598
66.07000 506.432
66.24000 391.268
66.41000 581.999
66.58000 425.751
66.75000 361.716
66.92000 388.352
67.09000 419.556
67.26000 444.348
67.43000 457.545
67.60000 528.124
67.77000 570.554
67.94000 606.919
68.11000 689.462
68.28000 762.013
68.45000 927.803
68.62000 1355.920
68.79000 2843.394
68.96000 22336.676
69.13000 96063.398
69.30000 57162.754
69.47000 14140.544
69.64000 1751.621
69.81000 1080.561
69.98000 855.173
70.00000 828.693