Folder: Master-Thesis/XRD/XRD/22-09-2025 Dep 2/XY Data (part 5)

File: BTO_Mapping_Theta2Theta_22-09-2025_001_44_-27-029_-13-017.xy
20.00000 583.609
20.17000 565.514
20.34000 560.072
20.51000 564.466
20.68000 539.913
20.85000 569.448
21.02000 566.085
21.19000 556.221
21.36000 570.444
21.53000 571.194
21.70000 624.856
21.87000 789.019
22.04000 869.860
22.21000 720.719
22.38000 599.071
22.55000 551.476
22.72000 543.427
22.89000 513.557
23.06000 510.457
23.23000 518.293
23.40000 510.923
23.57000 498.863
23.74000 491.906
23.91000 506.345
24.08000 512.178
24.25000 501.776
24.42000 474.929
24.59000 501.219
24.76000 498.413
24.93000 484.758
25.10000 497.695
25.27000 484.169
25.44000 494.540
25.61000 469.667
25.78000 472.068
25.95000 477.976
26.12000 449.431
26.29000 478.539
26.46000 460.394
26.63000 454.397
26.80000 478.901
26.97000 437.457
27.14000 455.759
27.31000 455.262
27.48000 446.195
27.65000 447.615
27.82000 444.354
27.99000 446.937
28.16000 443.495
28.33000 441.454
28.50000 427.011
28.67000 440.693
28.84000 425.912
29.01000 414.082
29.18000 415.900
29.35000 423.690
29.52000 400.776
29.69000 419.594
29.86000 464.364
30.03000 467.122
30.20000 450.953
30.37000 453.480
30.54000 440.070
30.71000 454.518
30.88000 504.126
31.05000 827.317
31.22000 3008.802
31.39000 4583.494
31.56000 2061.159
31.73000 744.172
31.90000 494.337
32.07000 422.016
32.24000 405.170
32.41000 408.650
32.58000 414.099
32.75000 391.363
32.92000 453.912
33.09000 407.671
33.26000 370.869
33.43000 368.969
33.60000 361.571
33.77000 346.883
33.94000 332.626
34.11000 323.338
34.28000 348.277
34.45000 325.793
34.62000 318.859
34.79000 323.188
34.96000 328.746
35.13000 322.724
35.30000 314.282
35.47000 308.859
35.64000 309.912
35.81000 322.422
35.98000 313.071
36.15000 309.831
36.32000 326.053
36.49000 306.050
36.66000 315.375
36.83000 310.848
37.00000 323.648
37.17000 305.416
37.34000 304.258
37.51000 309.860
37.68000 309.375
37.85000 313.883
38.02000 304.065
38.19000 335.925
38.36000 416.407
38.53000 598.135
38.70000 673.881
38.87000 475.492
39.04000 355.184
39.21000 313.571
39.38000 287.870
39.55000 277.475
39.72000 275.256
39.89000 275.801
40.06000 273.891
40.23000 277.266
40.40000 264.591
40.57000 286.292
40.74000 268.370
40.91000 266.363
41.08000 254.192
41.25000 250.950
41.42000 242.126
41.59000 240.925
41.76000 248.373
41.93000 255.122
42.10000 229.959
42.27000 254.585
42.44000 235.922
42.61000 252.799
42.78000 252.017
42.95000 234.535
43.12000 244.043
43.29000 229.179
43.46000 239.621
43.63000 238.983
43.80000 228.619
43.97000 241.227
44.14000 238.148
44.31000 246.931
44.48000 264.678
44.65000 337.862
44.82000 465.986
44.99000 521.389
45.16000 426.433
45.33000 334.019
45.50000 286.210
45.67000 245.061
45.84000 249.526
46.01000 214.110
46.18000 216.828
46.35000 213.170
46.52000 218.661
46.69000 208.770
46.86000 200.824
47.03000 211.749
47.20000 198.705
47.37000 205.849
47.54000 190.147
47.71000 173.193
47.88000 186.427
48.05000 195.763
48.22000 194.267
48.39000 187.230
48.56000 193.068
48.73000 191.163
48.90000 182.136
49.07000 199.594
49.24000 179.801
49.41000 191.961
49.58000 176.475
49.75000 184.432
49.92000 180.952
50.09000 184.134
50.26000 208.139
50.43000 248.316
50.60000 271.805
50.77000 277.466
50.94000 215.936
51.11000 202.651
51.28000 175.239
51.45000 175.134
51.62000 175.765
51.79000 166.050
51.96000 176.931
52.13000 173.809
52.30000 174.668
52.47000 170.275
52.64000 166.982
52.81000 166.559
52.98000 161.231
53.15000 161.739
53.32000 177.115
53.49000 159.349
53.66000 154.608
53.83000 170.738
54.00000 161.369
54.17000 169.257
54.34000 163.471
54.51000 162.885
54.68000 157.482
54.85000 173.482
55.02000 167.758
55.19000 173.601
55.36000 198.974
55.53000 295.783
55.70000 476.025
55.87000 531.707
56.04000 411.799
56.21000 263.297
56.38000 212.197
56.55000 184.218
56.72000 157.507
56.89000 156.535
57.06000 156.088
57.23000 144.823
57.40000 149.852
57.57000 148.114
57.74000 159.115
57.91000 140.890
58.08000 138.892
58.25000 143.086
58.42000 141.247
58.59000 143.242
58.76000 134.009
58.93000 139.892
59.10000 137.544
59.27000 129.618
59.44000 134.759
59.61000 126.835
59.78000 129.249
59.95000 122.782
60.12000 137.170
60.29000 131.990
60.46000 138.591
60.63000 143.854
60.80000 133.296
60.97000 142.291
61.14000 145.631
61.31000 137.948
61.48000 160.355
61.65000 349.162
61.82000 239.562
61.99000 149.586
62.16000 150.378
62.33000 140.611
62.50000 161.376
62.67000 150.446
62.84000 151.158
63.01000 151.776
63.18000 148.090
63.35000 145.265
63.52000 146.515
63.69000 157.435
63.86000 152.772
64.03000 161.566
64.20000 165.645
64.37000 171.068
64.54000 186.939
64.71000 191.541
64.88000 195.195
65.05000 232.138
65.22000 323.336
65.39000 434.262
65.56000 499.100
65.73000 866.884
65.90000 1571.259
66.07000 501.908
66.24000 375.530
66.41000 587.800
66.58000 426.067
66.75000 364.338
66.92000 371.387
67.09000 404.711
67.26000 433.353
67.43000 499.767
67.60000 530.331
67.77000 552.611
67.94000 604.405
68.11000 679.017
68.28000 748.171
68.45000 883.438
68.62000 1363.039
68.79000 2754.921
68.96000 18693.270
69.13000 95337.742
69.30000 58762.570
69.47000 15683.812
69.64000 1778.310
69.81000 1087.281
69.98000 868.582
70.00000 813.421

File: BTO_Mapping_Theta2Theta_22-09-2025_001_45_-36-039_-17-355.xy
20.00000 569.791
20.17000 597.438
20.34000 575.104
20.51000 576.943
20.68000 563.535
20.85000 576.944
21.02000 554.997
21.19000 575.373
21.36000 575.651
21.53000 547.129
21.70000 642.291
21.87000 795.938
22.04000 870.411
22.21000 691.611
22.38000 596.714
22.55000 573.837
22.72000 529.627
22.89000 528.898
23.06000 522.723
23.23000 500.463
23.40000 532.369
23.57000 521.925
23.74000 501.743
23.91000 512.786
24.08000 480.604
24.25000 472.340
24.42000 488.286
24.59000 501.885
24.76000 488.793
24.93000 475.047
25.10000 480.894
25.27000 485.170
25.44000 476.820
25.61000 480.720
25.78000 464.330
25.95000 488.744
26.12000 457.253
26.29000 477.523
26.46000 463.271
26.63000 463.966
26.80000 483.292
26.97000 462.572
27.14000 443.254
27.31000 456.908
27.48000 451.327
27.65000 439.509
27.82000 423.686
27.99000 454.780
28.16000 439.200
28.33000 438.956
28.50000 450.696
28.67000 421.458
28.84000 437.492
29.01000 428.643
29.18000 432.716
29.35000 429.238
29.52000 438.327
29.69000 435.133
29.86000 502.262
30.03000 489.266
30.20000 462.170
30.37000 457.539
30.54000 484.908
30.71000 481.400
30.88000 548.295
31.05000 1276.990
31.22000 5683.334
31.39000 5912.061
31.56000 1700.245
31.73000 721.074
31.90000 494.372
32.07000 429.120
32.24000 407.403
32.41000 404.860
32.58000 414.842
32.75000 409.045
32.92000 476.114
33.09000 408.745
33.26000 376.947
33.43000 361.850
33.60000 371.018
33.77000 359.925
33.94000 357.788
34.11000 348.664
34.28000 340.778
34.45000 338.539
34.62000 343.662
34.79000 331.550
34.96000 338.191
35.13000 318.809
35.30000 318.057
35.47000 312.427
35.64000 319.997
35.81000 311.932
35.98000 315.016
36.15000 315.024
36.32000 314.852
36.49000 306.081
36.66000 323.074
36.83000 307.377
37.00000 317.304
37.17000 316.997
37.34000 310.409
37.51000 307.424
37.68000 308.988
37.85000 313.306
38.02000 321.221
38.19000 341.552
38.36000 411.603
38.53000 546.764
38.70000 519.475
38.87000 387.699
39.04000 313.112
39.21000 320.631
39.38000 281.236
39.55000 269.426
39.72000 273.281
39.89000 278.268
40.06000 267.133
40.23000 270.517
40.40000 267.211
40.57000 272.902
40.74000 266.174
40.91000 249.481
41.08000 256.245
41.25000 263.393
41.42000 261.490
41.59000 246.649
41.76000 241.994
41.93000 256.146
42.10000 246.729
42.27000 241.475
42.44000 231.388
42.61000 247.991
42.78000 249.382
42.95000 239.002
43.12000 235.667
43.29000 247.107
43.46000 225.083
43.63000 245.562
43.80000 236.581
43.97000 219.497
44.14000 244.686
44.31000 246.414
44.48000 281.328
44.65000 401.334
44.82000 508.464
44.99000 497.689
45.16000 394.926
45.33000 338.673
45.50000 284.265
45.67000 253.387
45.84000 231.946
46.01000 214.745
46.18000 208.830
46.35000 217.231
46.52000 212.446
46.69000 206.500
46.86000 194.569
47.03000 201.266
47.20000 204.197
47.37000 202.615
47.54000 196.862
47.71000 205.389
47.88000 190.244
48.05000 195.023
48.22000 183.778
48.39000 192.443
48.56000 182.773
48.73000 187.441
48.90000 186.723
49.07000 191.390
49.24000 188.189
49.41000 188.329
49.58000 185.135
49.75000 193.988
49.92000 187.277
50.09000 195.960
50.26000 224.939
50.43000 281.812
50.60000 298.870
50.77000 251.835
50.94000 208.787
51.11000 180.909
51.28000 181.549
51.45000 180.838
51.62000 183.955
51.79000 177.374
51.96000 161.081
52.13000 171.827
52.30000 159.727
52.47000 164.461
52.64000 170.181
52.81000 169.754
52.98000 166.099
53.15000 171.599
53.32000 162.821
53.49000 169.590
53.66000 159.745
53.83000 164.853
54.00000 163.552
54.17000 164.071
54.34000 159.050
54.51000 158.535
54.68000 153.222
54.85000 170.410
55.02000 172.762
55.19000 188.653
55.36000 240.348
55.53000 392.826
55.70000 549.070
55.87000 470.463
56.04000 320.465
56.21000 225.949
56.38000 193.049
56.55000 170.097
56.72000 166.540
56.89000 157.393
57.06000 147.217
57.23000 143.197
57.40000 152.762
57.57000 148.538
57.74000 156.100
57.91000 147.059
58.08000 148.094
58.25000 137.654
58.42000 149.527
58.59000 142.369
58.76000 142.323
58.93000 120.731
59.10000 141.878
59.27000 140.673
59.44000 130.925
59.61000 135.225
59.78000 139.475
59.95000 144.881
60.12000 134.806
60.29000 142.668
60.46000 132.926
60.63000 123.344
60.80000 140.049
60.97000 133.680
61.14000 144.275
61.31000 144.351
61.48000 155.794
61.65000 355.495
61.82000 263.402
61.99000 150.235
62.16000 156.196
62.33000 152.935
62.50000 153.942
62.67000 141.815
62.84000 160.960
63.01000 147.242
63.18000 148.658
63.35000 152.023
63.52000 162.569
63.69000 155.416
63.86000 166.066
64.03000 164.716
64.20000 164.031
64.37000 175.331
64.54000 179.356
64.71000 188.655
64.88000 220.477
65.05000 318.944
65.22000 550.449
65.39000 631.691
65.56000 520.338
65.73000 780.349
65.90000 1622.411
66.07000 524.061
66.24000 377.921
66.41000 580.858
66.58000 437.960
66.75000 366.052
66.92000 376.533
67.09000 392.778
67.26000 448.764
67.43000 464.038
67.60000 512.538
67.77000 562.371
67.94000 601.235
68.11000 657.643
68.28000 760.017
68.45000 876.762
68.62000 1277.841
68.79000 2667.351
68.96000 15289.162
69.13000 94655.359
69.30000 61514.816
69.47000 18281.555
69.64000 1845.909
69.81000 1121.410
69.98000 832.946
70.00000 819.548

File: BTO_Mapping_Theta2Theta_22-09-2025_001_48_-12-470_-15-637.xy
20.00000 593.045
20.17000 553.729
20.34000 586.271
20.51000 569.600
20.68000 566.755
20.85000 564.273
21.02000 568.021
21.19000 565.720
21.36000 572.227
21.53000 567.515
21.70000 596.569
21.87000 709.620
22.04000 881.109
22.21000 743.574
22.38000 630.224
22.55000 552.397
22.72000 545.708
22.89000 527.870
23.06000 539.002
23.23000 500.406
23.40000 507.162
23.57000 523.154
23.74000 524.448
23.91000 510.931
24.08000 498.358
24.25000 493.327
24.42000 500.415
24.59000 484.714
24.76000 489.686
24.93000 485.688
25.10000 491.735
25.27000 476.238
25.44000 491.666
25.61000 480.772
25.78000 464.251
25.95000 476.143
26.12000 475.421
26.29000 466.775
26.46000 460.478
26.63000 448.584
26.80000 457.834
26.97000 445.026
27.14000 447.291
27.31000 441.777
27.48000 434.308
27.65000 454.259
27.82000 430.805
27.99000 423.588
28.16000 447.869
28.33000 427.030
28.50000 442.005
28.67000 428.817
28.84000 423.317
29.01000 423.911
29.18000 417.882
29.35000 421.900
29.52000 416.727
29.69000 412.104
29.86000 436.350
30.03000 442.168
30.20000 468.165
30.37000 419.831
30.54000 429.880
30.71000 449.474
30.88000 500.878
31.05000 696.818
31.22000 1766.238
31.39000 3386.031
31.56000 2073.178
31.73000 856.328
31.90000 518.223
32.07000 442.219
32.24000 427.411
32.41000 396.830
32.58000 377.947
32.75000 393.895
32.92000 454.893
33.09000 407.729
33.26000 354.328
33.43000 335.524
33.60000 344.319
33.77000 351.709
33.94000 329.770
34.11000 351.673
34.28000 355.761
34.45000 339.197
34.62000 334.662
34.79000 331.138
34.96000 348.866
35.13000 310.608
35.30000 333.825
35.47000 311.409
35.64000 329.923
35.81000 321.287
35.98000 310.718
36.15000 315.803
36.32000 302.934
36.49000 309.877
36.66000 286.967
36.83000 309.978
37.00000 312.731
37.17000 311.995
37.34000 301.704
37.51000 305.184
37.68000 293.606
37.85000 297.667
38.02000 331.887
38.19000 315.429
38.36000 355.380
38.53000 595.612
38.70000 868.379
38.87000 641.431
39.04000 406.531
39.21000 321.629
39.38000 301.340
39.55000 279.297
39.72000 274.818
39.89000 256.773
40.06000 263.684
40.23000 267.591
40.40000 249.403
40.57000 266.936
40.74000 266.439
40.91000 259.870
41.08000 236.132
41.25000 241.686
41.42000 244.481
41.59000 246.123
41.76000 244.332
41.93000 241.882
42.10000 250.210
42.27000 242.703
42.44000 227.395
42.61000 224.542
42.78000 230.880
42.95000 235.504
43.12000 242.061
43.29000 231.193
43.46000 223.588
43.63000 239.021
43.80000 247.526
43.97000 241.444
44.14000 235.499
44.31000 244.806
44.48000 251.014
44.65000 276.021
44.82000 368.915
44.99000 467.901
45.16000 455.358
45.33000 355.046
45.50000 295.873
45.67000 264.212
45.84000 246.816
46.01000 225.869
46.18000 202.747
46.35000 204.553
46.52000 206.462
46.69000 202.645
46.86000 210.489
47.03000 206.164
47.20000 186.896
47.37000 186.512
47.54000 196.068
47.71000 197.890
47.88000 177.814
48.05000 191.017
48.22000 191.481
48.39000 182.514
48.56000 184.383
48.73000 179.822
48.90000 187.792
49.07000 182.356
49.24000 183.676
49.41000 190.396
49.58000 181.643
49.75000 181.727
49.92000 162.130
50.09000 188.352
50.26000 178.894
50.43000 209.172
50.60000 250.146
50.77000 283.108
50.94000 237.900
51.11000 194.752
51.28000 188.262
51.45000 170.294
51.62000 164.463
51.79000 162.100
51.96000 155.068
52.13000 181.197
52.30000 161.267
52.47000 163.357
52.64000 165.122
52.81000 161.618
52.98000 166.753
53.15000 174.111
53.32000 170.384
53.49000 159.134
53.66000 160.123
53.83000 161.018
54.00000 164.937
54.17000 155.359
54.34000 151.858
54.51000 163.929
54.68000 155.106
54.85000 170.158
55.02000 169.272
55.19000 173.160
55.36000 197.921
55.53000 239.264
55.70000 354.090
55.87000 571.189
56.04000 549.589
56.21000 367.716
56.38000 234.638
56.55000 198.704
56.72000 179.731
56.89000 155.427
57.06000 150.305
57.23000 155.076
57.40000 131.282
57.57000 161.181
57.74000 141.568
57.91000 142.183
58.08000 145.461
58.25000 145.016
58.42000 137.748
58.59000 134.310
58.76000 133.537
58.93000 128.764
59.10000 141.071
59.27000 133.007
59.44000 130.003
59.61000 143.243
59.78000 140.821
59.95000 133.866
60.12000 130.092
60.29000 140.404
60.46000 130.455
60.63000 137.339
60.80000 137.862
60.97000 134.116
61.14000 144.376
61.31000 139.630
61.48000 148.168
61.65000 366.823
61.82000 246.952
61.99000 150.127
62.16000 154.053
62.33000 148.704
62.50000 147.768
62.67000 146.781
62.84000 147.389
63.01000 152.786
63.18000 151.998
63.35000 158.833
63.52000 153.421
63.69000 145.071
63.86000 161.144
64.03000 164.593
64.20000 161.933
64.37000 165.179
64.54000 171.974
64.71000 164.595
64.88000 196.672
65.05000 199.366
65.22000 246.156
65.39000 328.377
65.56000 445.956
65.73000 914.827
65.90000 1633.484
66.07000 514.407
66.24000 390.504
66.41000 598.797
66.58000 430.876
66.75000 373.458
66.92000 389.569
67.09000 423.347
67.26000 443.673
67.43000 492.039
67.60000 512.191
67.77000 573.717
67.94000 634.979
68.11000 676.364
68.28000 762.225
68.45000 918.280
68.62000 1341.051
68.79000 2865.233
68.96000 20750.131
69.13000 96454.391
69.30000 58712.656
69.47000 15067.562
69.64000 1782.273
69.81000 1097.377
69.98000 861.652
70.00000 844.076

File: BTO_Mapping_Theta2Theta_22-09-2025_001_51_-31-174_-39-092.xy
20.00000 581.694
20.17000 565.001
20.34000 569.242
20.51000 547.866
20.68000 542.686
20.85000 528.294
21.02000 546.847
21.19000 528.668
21.36000 528.966
21.53000 505.758
21.70000 536.990
21.87000 511.316
22.04000 527.954
22.21000 521.138
22.38000 539.144
22.55000 513.761
22.72000 507.681
22.89000 499.087
23.06000 515.157
23.23000 503.906
23.40000 482.575
23.57000 477.105
23.74000 485.495
23.91000 473.060
24.08000 482.360
24.25000 458.126
24.42000 484.575
24.59000 482.811
24.76000 472.264
24.93000 447.913
25.10000 458.452
25.27000 454.338
25.44000 457.186
25.61000 477.543
25.78000 444.298
25.95000 440.205
26.12000 442.146
26.29000 443.474
26.46000 440.644
26.63000 422.069
26.80000 440.767
26.97000 443.850
27.14000 429.349
27.31000 421.437
27.48000 410.607
27.65000 402.237
27.82000 422.170
27.99000 407.942
28.16000 426.892
28.33000 418.704
28.50000 392.378
28.67000 402.280
28.84000 389.122
29.01000 387.204
29.18000 386.705
29.35000 395.260
29.52000 397.297
29.69000 378.824
29.86000 362.391
30.03000 375.582
30.20000 375.482
30.37000 376.873
30.54000 367.822
30.71000 373.279
30.88000 372.969
31.05000 365.855
31.22000 367.236
31.39000 350.990
31.56000 365.520
31.73000 342.118
31.90000 363.131
32.07000 354.200
32.24000 349.185
32.41000 332.992
32.58000 344.406
32.75000 331.537
32.92000 349.266
33.09000 341.453
33.26000 331.490
33.43000 321.937
33.60000 312.915
33.77000 320.825
33.94000 327.268
34.11000 318.655
34.28000 320.782
34.45000 321.605
34.62000 321.750
34.79000 308.924
34.96000 306.633
35.13000 309.062
35.30000 293.697
35.47000 308.256
35.64000 284.386
35.81000 303.766
35.98000 286.646
36.15000 294.708
36.32000 287.682
36.49000 284.911
36.66000 286.055
36.83000 294.867
37.00000 282.702
37.17000 270.567
37.34000 276.351
37.51000 266.311
37.68000 283.861
37.85000 246.655
38.02000 272.116
38.19000 247.848
38.36000 250.100
38.53000 262.228
38.70000 263.686
38.87000 255.598
39.04000 254.753
39.21000 271.744
39.38000 252.835
39.55000 254.612
39.72000 258.589
39.89000 239.285
40.06000 238.694
40.23000 238.655
40.40000 241.037
40.57000 240.864
40.74000 237.022
40.91000 242.605
41.08000 228.402
41.25000 233.622
41.42000 230.580
41.59000 230.473
41.76000 215.726
41.93000 230.980
42.10000 234.967
42.27000 235.479
42.44000 221.467
42.61000 235.340
42.78000 220.466
42.95000 205.537
43.12000 215.582
43.29000 220.994
43.46000 216.143
43.63000 206.978
43.80000 199.747
43.97000 202.942
44.14000 206.609
44.31000 206.341
44.48000 198.952
44.65000 189.242
44.82000 192.268
44.99000 189.766
45.16000 194.239
45.33000 194.144
45.50000 187.731
45.67000 185.811
45.84000 191.666
46.01000 181.019
46.18000 191.787
46.35000 188.036
46.52000 184.956
46.69000 194.535
46.86000 179.730
47.03000 180.362
47.20000 171.540
47.37000 172.437
47.54000 170.856
47.71000 176.298
47.88000 168.415
48.05000 172.219
48.22000 176.589
48.39000 174.166
48.56000 166.836
48.73000 158.567
48.90000 165.272
49.07000 159.413
49.24000 162.307
49.41000 161.775
49.58000 161.642
49.75000 170.444
49.92000 157.426
50.09000 153.972
50.26000 158.529
50.43000 163.416
50.60000 149.229
50.77000 133.030
50.94000 150.268
51.11000 151.587
51.28000 149.401
51.45000 151.075
51.62000 152.131
51.79000 151.566
51.96000 161.746
52.13000 156.321
52.30000 155.549
52.47000 145.186
52.64000 144.803
52.81000 143.017
52.98000 139.786
53.15000 140.315
53.32000 141.824
53.49000 141.769
53.66000 147.947
53.83000 144.025
54.00000 142.064
54.17000 133.562
54.34000 144.140
54.51000 138.574
54.68000 130.321
54.85000 126.153
55.02000 125.233
55.19000 140.009
55.36000 122.205
55.53000 128.453
55.70000 133.256
55.87000 125.053
56.04000 130.348
56.21000 133.161
56.38000 136.762
56.55000 126.575
56.72000 136.256
56.89000 129.678
57.06000 118.623
57.23000 126.806
57.40000 124.266
57.57000 124.951
57.74000 128.136
57.91000 126.172
58.08000 129.559
58.25000 124.699
58.42000 120.653
58.59000 126.161
58.76000 113.924
58.93000 117.994
59.10000 116.253
59.27000 117.019
59.44000 122.433
59.61000 127.413
59.78000 119.893
59.95000 116.612
60.12000 120.318
60.29000 107.307
60.46000 122.966
60.63000 111.649
60.80000 112.278
60.97000 113.184
61.14000 113.431
61.31000 118.072
61.48000 118.800
61.65000 158.470
61.82000 157.116
61.99000 114.951
62.16000 115.726
62.33000 131.104
62.50000 120.623
62.67000 105.329
62.84000 107.370
63.01000 135.754
63.18000 119.361
63.35000 118.581
63.52000 118.623
63.69000 121.803
63.86000 129.115
64.03000 121.671
64.20000 120.564
64.37000 132.480
64.54000 133.927
64.71000 129.396
64.88000 138.496
65.05000 135.419
65.22000 131.171
65.39000 136.341
65.56000 154.672
65.73000 194.662
65.90000 482.121
66.07000 247.010
66.24000 187.941
66.41000 239.946
66.58000 226.928
66.75000 197.385
66.92000 205.486
67.09000 213.507
67.26000 225.398
67.43000 227.464
67.60000 244.414
67.77000 270.367
67.94000 291.572
68.11000 289.040
68.28000 330.749
68.45000 363.008
68.62000 476.546
68.79000 777.625
68.96000 2642.428
69.13000 23867.742
69.30000 19950.715
69.47000 8195.871
69.64000 718.115
69.81000 455.794
69.98000 358.939
70.00000 359.272

File: BTO_Mapping_Theta2Theta_22-09-2025_001_56_-11-126_-48-746.xy
20.00000 559.982
20.17000 543.715
20.34000 558.004
20.51000 554.445
20.68000 553.709
20.85000 548.252
21.02000 530.358
21.19000 544.510
21.36000 545.334
21.53000 527.032
21.70000 518.538
21.87000 531.952
22.04000 515.724
22.21000 500.814
22.38000 508.391
22.55000 503.580
22.72000 518.818
22.89000 486.261
23.06000 507.516
23.23000 523.923
23.40000 493.488
23.57000 494.412
23.74000 493.220
23.91000 502.629
24.08000 485.035
24.25000 490.779
24.42000 476.590
24.59000 484.741
24.76000 488.667
24.93000 464.000
25.10000 465.068
25.27000 469.611
25.44000 463.418
25.61000 446.547
25.78000 443.169
25.95000 456.251
26.12000 439.274
26.29000 454.762
26.46000 443.079
26.63000 425.421
26.80000 437.081
26.97000 434.627
27.14000 416.523
27.31000 420.587
27.48000 423.937
27.65000 423.525
27.82000 438.157
27.99000 406.620
28.16000 422.105
28.33000 417.710
28.50000 400.960
28.67000 394.551
28.84000 410.268
29.01000 402.356
29.18000 415.746
29.35000 398.237
29.52000 369.500
29.69000 387.548
29.86000 370.453
30.03000 390.873
30.20000 387.235
30.37000 378.647
30.54000 366.132
30.71000 369.612
30.88000 379.003
31.05000 371.614
31.22000 349.946
31.39000 353.540
31.56000 365.385
31.73000 367.206
31.90000 357.508
32.07000 336.835
32.24000 352.066
32.41000 363.219
32.58000 339.999
32.75000 351.904
32.92000 366.951
33.09000 351.651
33.26000 340.376
33.43000 333.888
33.60000 334.375
33.77000 330.890
33.94000 331.434
34.11000 313.877
34.28000 324.445
34.45000 325.166
34.62000 316.298
34.79000 309.459
34.96000 309.213
35.13000 313.051
35.30000 319.229
35.47000 315.381
35.64000 318.050
35.81000 292.428
35.98000 296.694
36.15000 309.189
36.32000 291.843
36.49000 288.528
36.66000 266.283
36.83000 263.183
37.00000 288.076
37.17000 273.977
37.34000 277.459
37.51000 282.281
37.68000 265.459
37.85000 269.436
38.02000 279.367
38.19000 265.046
38.36000 279.557
38.53000 266.761
38.70000 253.603
38.87000 269.034
39.04000 256.278
39.21000 263.275
39.38000 257.810
39.55000 256.209
39.72000 252.234
39.89000 254.681
40.06000 261.161
40.23000 249.989
40.40000 249.944
40.57000 257.763
40.74000 240.661
40.91000 251.292
41.08000 236.395
41.25000 227.895
41.42000 242.830
41.59000 242.639
41.76000 223.575
41.93000 229.077
42.10000 244.310
42.27000 221.321
42.44000 221.181
42.61000 222.399
42.78000 223.181
42.95000 219.481
43.12000 222.962
43.29000 221.507
43.46000 206.672
43.63000 211.674
43.80000 212.087
43.97000 220.459
44.14000 213.083
44.31000 218.055
44.48000 201.908
44.65000 209.391
44.82000 206.699
44.99000 206.335
45.16000 216.503
45.33000 194.323
45.50000 204.947
45.67000 189.176
45.84000 192.024
46.01000 194.385
46.18000 190.846
46.35000 187.820
46.52000 191.350
46.69000 193.353
46.86000 188.106
47.03000 186.193
47.20000 188.158
47.37000 186.474
47.54000 187.709
47.71000 188.392
47.88000 175.753
48.05000 176.183
48.22000 173.413
48.39000 193.970
48.56000 174.112
48.73000 168.211
48.90000 165.736
49.07000 163.594
49.24000 171.959
49.41000 163.587
49.58000 161.695
49.75000 168.547
49.92000 159.861
50.09000 168.964
50.26000 170.004
50.43000 165.262
50.60000 155.756
50.77000 174.630
50.94000 155.123
51.11000 165.054
51.28000 161.413
51.45000 151.637
51.62000 154.792
51.79000 154.673
51.96000 160.895
52.13000 157.259
52.30000 155.461
52.47000 155.110
52.64000 148.504
52.81000 157.694
52.98000 155.686
53.15000 149.469
53.32000 144.716
53.49000 153.519
53.66000 155.003
53.83000 147.745
54.00000 152.982
54.17000 144.771
54.34000 150.162
54.51000 150.950
54.68000 147.246
54.85000 148.010
55.02000 142.956
55.19000 149.462
55.36000 138.956
55.53000 139.450
55.70000 131.338
55.87000 140.195
56.04000 128.713
56.21000 139.780
56.38000 139.766
56.55000 138.797
56.72000 142.382
56.89000 134.422
57.06000 130.065
57.23000 137.902
57.40000 142.143
57.57000 133.137
57.74000 138.707
57.91000 127.591
58.08000 128.114
58.25000 130.862
58.42000 135.637
58.59000 120.164
58.76000 123.971
58.93000 143.352
59.10000 130.276
59.27000 141.517
59.44000 127.353
59.61000 126.455
59.78000 130.062
59.95000 131.192
60.12000 137.864
60.29000 123.369
60.46000 125.172
60.63000 128.858
60.80000 126.065
60.97000 134.678
61.14000 131.759
61.31000 140.117
61.48000 131.952
61.65000 220.944
61.82000 206.944
61.99000 147.275
62.16000 135.115
62.33000 135.797
62.50000 137.445
62.67000 145.008
62.84000 139.240
63.01000 149.196
63.18000 159.276
63.35000 147.759
63.52000 145.497
63.69000 146.579
63.86000 148.463
64.03000 148.823
64.20000 153.384
64.37000 151.520
64.54000 173.443
64.71000 161.046
64.88000 177.666
65.05000 172.436
65.22000 177.459
65.39000 179.708
65.56000 221.559
65.73000 405.069
65.90000 869.577
66.07000 356.153
66.24000 281.528
66.41000 389.207
66.58000 329.938
66.75000 295.777
66.92000 310.809
67.09000 331.461
67.26000 352.994
67.43000 395.635
67.60000 399.107
67.77000 447.864
67.94000 478.672
68.11000 515.856
68.28000 578.695
68.45000 678.354
68.62000 887.079
68.79000 1555.588
68.96000 6644.657
69.13000 48298.531
69.30000 34482.082
69.47000 11665.249
69.64000 1248.260
69.81000 830.474
69.98000 631.177
70.00000 627.737