Folder: Master-Thesis/XRD/XRD/22-09-2025 Dep 2/XY Data (part 7)

File: BTO_Mapping_Theta2Theta_22-09-2025_001_68_18-019_-8-678.xy
20.00000 571.596
20.17000 577.970
20.34000 563.401
20.51000 565.875
20.68000 566.021
20.85000 558.470
21.02000 555.919
21.19000 561.692
21.36000 553.066
21.53000 555.049
21.70000 572.164
21.87000 633.317
22.04000 707.997
22.21000 713.827
22.38000 622.963
22.55000 582.824
22.72000 537.701
22.89000 522.532
23.06000 531.373
23.23000 512.557
23.40000 510.322
23.57000 499.405
23.74000 521.975
23.91000 526.351
24.08000 532.514
24.25000 505.394
24.42000 496.506
24.59000 492.548
24.76000 478.937
24.93000 485.155
25.10000 485.438
25.27000 476.588
25.44000 472.052
25.61000 487.472
25.78000 460.719
25.95000 458.321
26.12000 458.205
26.29000 453.240
26.46000 454.427
26.63000 453.721
26.80000 429.586
26.97000 446.388
27.14000 444.429
27.31000 455.458
27.48000 434.839
27.65000 438.817
27.82000 421.973
27.99000 427.362
28.16000 439.327
28.33000 435.359
28.50000 415.437
28.67000 433.480
28.84000 427.282
29.01000 421.838
29.18000 419.846
29.35000 412.500
29.52000 423.547
29.69000 404.939
29.86000 432.836
30.03000 448.032
30.20000 424.467
30.37000 423.825
30.54000 443.425
30.71000 440.137
30.88000 500.544
31.05000 647.522
31.22000 1495.992
31.39000 3071.572
31.56000 1997.119
31.73000 802.322
31.90000 509.208
32.07000 447.110
32.24000 415.852
32.41000 416.209
32.58000 361.642
32.75000 387.436
32.92000 432.306
33.09000 377.087
33.26000 357.012
33.43000 326.193
33.60000 362.132
33.77000 344.013
33.94000 352.957
34.11000 344.342
34.28000 340.461
34.45000 342.073
34.62000 338.583
34.79000 320.474
34.96000 325.277
35.13000 314.471
35.30000 312.573
35.47000 311.178
35.64000 313.966
35.81000 291.964
35.98000 315.476
36.15000 304.007
36.32000 297.835
36.49000 290.900
36.66000 295.698
36.83000 282.963
37.00000 303.246
37.17000 305.827
37.34000 306.404
37.51000 294.273
37.68000 288.229
37.85000 291.222
38.02000 290.592
38.19000 305.920
38.36000 342.525
38.53000 502.652
38.70000 1009.628
38.87000 876.187
39.04000 414.647
39.21000 320.597
39.38000 281.002
39.55000 274.116
39.72000 271.853
39.89000 267.155
40.06000 258.284
40.23000 259.304
40.40000 268.989
40.57000 265.193
40.74000 241.365
40.91000 252.731
41.08000 239.495
41.25000 242.993
41.42000 242.122
41.59000 256.147
41.76000 244.518
41.93000 241.559
42.10000 232.235
42.27000 228.033
42.44000 233.374
42.61000 229.771
42.78000 232.919
42.95000 240.481
43.12000 229.079
43.29000 231.676
43.46000 219.406
43.63000 235.220
43.80000 225.864
43.97000 234.691
44.14000 219.459
44.31000 224.266
44.48000 229.851
44.65000 236.789
44.82000 268.667
44.99000 324.658
45.16000 366.776
45.33000 337.960
45.50000 297.082
45.67000 264.942
45.84000 239.319
46.01000 220.759
46.18000 202.851
46.35000 193.544
46.52000 213.802
46.69000 204.825
46.86000 199.116
47.03000 205.067
47.20000 186.440
47.37000 185.175
47.54000 197.796
47.71000 185.323
47.88000 194.958
48.05000 181.919
48.22000 167.427
48.39000 191.325
48.56000 188.947
48.73000 172.894
48.90000 186.424
49.07000 182.342
49.24000 171.124
49.41000 167.907
49.58000 174.293
49.75000 163.511
49.92000 164.168
50.09000 173.622
50.26000 171.758
50.43000 192.001
50.60000 225.359
50.77000 248.452
50.94000 225.614
51.11000 191.210
51.28000 184.442
51.45000 171.776
51.62000 170.258
51.79000 169.454
51.96000 159.706
52.13000 171.429
52.30000 160.570
52.47000 162.843
52.64000 158.142
52.81000 159.467
52.98000 154.534
53.15000 155.144
53.32000 157.748
53.49000 154.272
53.66000 155.503
53.83000 157.138
54.00000 169.843
54.17000 155.919
54.34000 161.602
54.51000 143.517
54.68000 155.920
54.85000 159.550
55.02000 147.657
55.19000 166.752
55.36000 166.512
55.53000 196.157
55.70000 255.078
55.87000 432.731
56.04000 528.066
56.21000 363.942
56.38000 247.962
56.55000 187.667
56.72000 177.649
56.89000 152.376
57.06000 144.285
57.23000 147.912
57.40000 148.603
57.57000 151.818
57.74000 135.007
57.91000 139.262
58.08000 147.767
58.25000 133.307
58.42000 139.276
58.59000 143.816
58.76000 124.929
58.93000 139.458
59.10000 141.831
59.27000 136.615
59.44000 131.638
59.61000 140.411
59.78000 137.392
59.95000 131.327
60.12000 131.473
60.29000 132.384
60.46000 135.397
60.63000 121.698
60.80000 142.796
60.97000 141.740
61.14000 137.742
61.31000 131.023
61.48000 144.267
61.65000 276.990
61.82000 207.803
61.99000 140.636
62.16000 137.646
62.33000 143.799
62.50000 147.626
62.67000 148.246
62.84000 153.769
63.01000 151.485
63.18000 141.255
63.35000 146.581
63.52000 140.481
63.69000 151.037
63.86000 152.000
64.03000 164.021
64.20000 161.439
64.37000 172.389
64.54000 165.330
64.71000 179.404
64.88000 183.275
65.05000 201.213
65.22000 226.210
65.39000 284.531
65.56000 403.676
65.73000 676.075
65.90000 1132.083
66.07000 404.944
66.24000 324.235
66.41000 443.356
66.58000 351.559
66.75000 334.697
66.92000 341.558
67.09000 352.971
67.26000 382.662
67.43000 405.464
67.60000 436.335
67.77000 481.457
67.94000 515.588
68.11000 581.802
68.28000 620.012
68.45000 760.954
68.62000 1038.980
68.79000 1933.752
68.96000 12325.130
69.13000 61256.945
69.30000 37321.781
69.47000 9539.581
69.64000 1322.580
69.81000 878.876
69.98000 722.591
70.00000 696.139

File: BTO_Mapping_Theta2Theta_22-09-2025_001_69_27-029_-13-017.xy
20.00000 568.564
20.17000 564.455
20.34000 574.207
20.51000 559.545
20.68000 560.405
20.85000 547.586
21.02000 570.460
21.19000 566.398
21.36000 566.312
21.53000 552.562
21.70000 558.500
21.87000 603.850
22.04000 686.884
22.21000 692.943
22.38000 612.052
22.55000 578.230
22.72000 540.302
22.89000 534.515
23.06000 533.783
23.23000 520.280
23.40000 516.376
23.57000 511.644
23.74000 523.286
23.91000 535.006
24.08000 538.781
24.25000 513.611
24.42000 480.005
24.59000 512.371
24.76000 483.795
24.93000 497.079
25.10000 470.082
25.27000 467.259
25.44000 476.537
25.61000 487.795
25.78000 459.072
25.95000 475.642
26.12000 469.514
26.29000 469.935
26.46000 437.931
26.63000 444.794
26.80000 442.964
26.97000 435.669
27.14000 438.224
27.31000 440.516
27.48000 435.861
27.65000 424.213
27.82000 429.533
27.99000 434.948
28.16000 436.632
28.33000 431.112
28.50000 405.159
28.67000 417.964
28.84000 413.878
29.01000 425.490
29.18000 436.195
29.35000 399.538
29.52000 421.597
29.69000 426.257
29.86000 435.290
30.03000 443.066
30.20000 426.084
30.37000 414.323
30.54000 421.714
30.71000 434.820
30.88000 480.320
31.05000 581.944
31.22000 1256.589
31.39000 2410.266
31.56000 1800.254
31.73000 762.618
31.90000 512.056
32.07000 434.363
32.24000 407.398
32.41000 401.964
32.58000 382.863
32.75000 377.646
32.92000 403.896
33.09000 363.748
33.26000 350.767
33.43000 356.736
33.60000 335.108
33.77000 350.108
33.94000 359.078
34.11000 338.655
34.28000 353.462
34.45000 329.638
34.62000 340.534
34.79000 330.928
34.96000 324.098
35.13000 319.574
35.30000 314.053
35.47000 305.902
35.64000 312.009
35.81000 319.029
35.98000 312.180
36.15000 305.627
36.32000 322.861
36.49000 291.215
36.66000 298.639
36.83000 279.631
37.00000 310.967
37.17000 306.126
37.34000 285.581
37.51000 288.967
37.68000 290.143
37.85000 298.986
38.02000 289.587
38.19000 299.694
38.36000 330.274
38.53000 496.049
38.70000 967.455
38.87000 896.368
39.04000 421.107
39.21000 297.052
39.38000 293.519
39.55000 265.791
39.72000 265.484
39.89000 268.334
40.06000 275.849
40.23000 248.065
40.40000 260.438
40.57000 253.237
40.74000 256.439
40.91000 258.868
41.08000 261.031
41.25000 246.568
41.42000 240.608
41.59000 240.797
41.76000 238.846
41.93000 248.496
42.10000 235.867
42.27000 222.706
42.44000 236.829
42.61000 241.175
42.78000 232.863
42.95000 230.357
43.12000 232.673
43.29000 231.351
43.46000 239.725
43.63000 238.436
43.80000 223.379
43.97000 227.668
44.14000 220.094
44.31000 220.038
44.48000 223.920
44.65000 234.361
44.82000 258.114
44.99000 289.607
45.16000 322.560
45.33000 290.900
45.50000 276.911
45.67000 249.713
45.84000 240.385
46.01000 216.865
46.18000 206.951
46.35000 199.076
46.52000 198.397
46.69000 195.951
46.86000 205.579
47.03000 206.040
47.20000 195.480
47.37000 192.100
47.54000 188.419
47.71000 187.251
47.88000 200.573
48.05000 185.396
48.22000 181.953
48.39000 181.117
48.56000 182.917
48.73000 175.927
48.90000 170.419
49.07000 181.844
49.24000 176.725
49.41000 191.603
49.58000 172.792
49.75000 183.303
49.92000 171.400
50.09000 178.521
50.26000 186.963
50.43000 179.717
50.60000 231.111
50.77000 258.325
50.94000 228.213
51.11000 181.773
51.28000 179.302
51.45000 178.102
51.62000 163.395
51.79000 169.691
51.96000 159.258
52.13000 168.772
52.30000 155.526
52.47000 167.191
52.64000 152.126
52.81000 164.868
52.98000 162.974
53.15000 154.474
53.32000 163.734
53.49000 157.480
53.66000 153.821
53.83000 160.997
54.00000 153.611
54.17000 161.521
54.34000 159.854
54.51000 153.869
54.68000 158.431
54.85000 156.894
55.02000 146.899
55.19000 151.970
55.36000 173.908
55.53000 177.634
55.70000 245.377
55.87000 415.224
56.04000 543.381
56.21000 419.443
56.38000 244.302
56.55000 188.912
56.72000 171.267
56.89000 162.795
57.06000 143.337
57.23000 146.290
57.40000 139.298
57.57000 133.117
57.74000 146.975
57.91000 139.463
58.08000 132.460
58.25000 141.794
58.42000 139.849
58.59000 131.406
58.76000 137.260
58.93000 145.580
59.10000 138.458
59.27000 130.559
59.44000 131.686
59.61000 130.429
59.78000 137.901
59.95000 128.809
60.12000 133.109
60.29000 138.678
60.46000 135.995
60.63000 135.609
60.80000 122.940
60.97000 127.037
61.14000 129.504
61.31000 139.661
61.48000 152.891
61.65000 253.405
61.82000 214.519
61.99000 149.376
62.16000 143.672
62.33000 156.920
62.50000 141.583
62.67000 139.622
62.84000 151.050
63.01000 149.179
63.18000 151.928
63.35000 156.757
63.52000 142.010
63.69000 149.931
63.86000 163.631
64.03000 158.867
64.20000 151.344
64.37000 168.826
64.54000 164.546
64.71000 173.169
64.88000 180.766
65.05000 188.205
65.22000 201.400
65.39000 263.791
65.56000 365.333
65.73000 625.237
65.90000 1085.122
66.07000 389.874
66.24000 303.928
66.41000 433.621
66.58000 334.071
66.75000 312.547
66.92000 322.945
67.09000 348.949
67.26000 371.357
67.43000 418.685
67.60000 433.180
67.77000 465.974
67.94000 486.704
68.11000 565.732
68.28000 609.632
68.45000 704.990
68.62000 1007.999
68.79000 1788.429
68.96000 10365.845
69.13000 57112.523
69.30000 34983.664
69.47000 9369.244
69.64000 1319.961
69.81000 844.553
69.98000 668.142
70.00000 683.243

File: BTO_Mapping_Theta2Theta_22-09-2025_001_70_36-039_-17-355.xy
20.00000 563.775
20.17000 555.615
20.34000 575.299
20.51000 571.011
20.68000 577.622
20.85000 553.483
21.02000 552.464
21.19000 560.547
21.36000 562.154
21.53000 549.752
21.70000 550.657
21.87000 581.354
22.04000 662.371
22.21000 665.560
22.38000 595.045
22.55000 543.403
22.72000 532.611
22.89000 518.635
23.06000 510.280
23.23000 501.374
23.40000 512.258
23.57000 518.129
23.74000 526.815
23.91000 550.267
24.08000 552.059
24.25000 516.655
24.42000 497.628
24.59000 499.282
24.76000 482.805
24.93000 473.667
25.10000 483.940
25.27000 456.593
25.44000 460.936
25.61000 458.668
25.78000 474.855
25.95000 456.042
26.12000 452.116
26.29000 463.028
26.46000 442.215
26.63000 475.288
26.80000 431.926
26.97000 466.762
27.14000 447.025
27.31000 443.965
27.48000 441.690
27.65000 448.292
27.82000 417.384
27.99000 420.101
28.16000 418.319
28.33000 426.840
28.50000 428.887
28.67000 433.907
28.84000 423.694
29.01000 412.005
29.18000 422.766
29.35000 413.098
29.52000 425.965
29.69000 423.829
29.86000 426.685
30.03000 426.803
30.20000 438.294
30.37000 418.244
30.54000 413.017
30.71000 421.220
30.88000 462.903
31.05000 533.226
31.22000 1043.445
31.39000 2048.199
31.56000 1646.037
31.73000 777.030
31.90000 501.268
32.07000 421.704
32.24000 398.204
32.41000 418.195
32.58000 365.832
32.75000 391.043
32.92000 384.145
33.09000 370.394
33.26000 351.132
33.43000 341.953
33.60000 354.045
33.77000 332.861
33.94000 342.165
34.11000 342.803
34.28000 354.032
34.45000 347.297
34.62000 337.339
34.79000 321.369
34.96000 319.845
35.13000 326.947
35.30000 304.949
35.47000 294.536
35.64000 316.330
35.81000 293.934
35.98000 302.485
36.15000 299.282
36.32000 298.818
36.49000 318.254
36.66000 297.193
36.83000 296.616
37.00000 290.901
37.17000 304.269
37.34000 303.083
37.51000 301.915
37.68000 301.597
37.85000 291.071
38.02000 295.743
38.19000 292.741
38.36000 325.729
38.53000 441.222
38.70000 904.325
38.87000 899.430
39.04000 430.935
39.21000 305.766
39.38000 286.384
39.55000 283.422
39.72000 260.545
39.89000 256.392
40.06000 255.862
40.23000 259.961
40.40000 249.585
40.57000 251.883
40.74000 256.982
40.91000 255.210
41.08000 243.586
41.25000 248.466
41.42000 249.792
41.59000 252.526
41.76000 231.946
41.93000 229.576
42.10000 230.338
42.27000 237.935
42.44000 232.393
42.61000 237.768
42.78000 236.660
42.95000 222.736
43.12000 230.106
43.29000 217.959
43.46000 234.621
43.63000 228.172
43.80000 232.193
43.97000 223.871
44.14000 238.713
44.31000 232.518
44.48000 237.574
44.65000 243.008
44.82000 252.350
44.99000 273.687
45.16000 298.359
45.33000 311.265
45.50000 262.843
45.67000 251.609
45.84000 220.897
46.01000 221.118
46.18000 211.492
46.35000 221.312
46.52000 200.545
46.69000 215.342
46.86000 211.488
47.03000 211.842
47.20000 191.957
47.37000 186.519
47.54000 182.246
47.71000 186.542
47.88000 184.583
48.05000 181.284
48.22000 183.016
48.39000 182.484
48.56000 173.582
48.73000 180.179
48.90000 187.856
49.07000 174.277
49.24000 169.624
49.41000 171.666
49.58000 173.519
49.75000 165.936
49.92000 173.067
50.09000 171.106
50.26000 171.608
50.43000 190.450
50.60000 203.408
50.77000 222.391
50.94000 211.938
51.11000 191.354
51.28000 179.697
51.45000 172.697
51.62000 173.497
51.79000 167.800
51.96000 164.690
52.13000 175.298
52.30000 163.005
52.47000 156.052
52.64000 160.925
52.81000 154.899
52.98000 151.888
53.15000 157.669
53.32000 156.230
53.49000 157.134
53.66000 147.464
53.83000 154.303
54.00000 149.938
54.17000 152.918
54.34000 156.063
54.51000 158.178
54.68000 163.141
54.85000 143.362
55.02000 145.096
55.19000 160.045
55.36000 173.659
55.53000 178.867
55.70000 224.307
55.87000 414.027
56.04000 598.545
56.21000 459.679
56.38000 268.621
56.55000 193.864
56.72000 169.808
56.89000 149.999
57.06000 150.715
57.23000 155.991
57.40000 136.593
57.57000 135.410
57.74000 156.716
57.91000 126.379
58.08000 142.274
58.25000 146.317
58.42000 137.953
58.59000 136.827
58.76000 126.954
58.93000 134.045
59.10000 138.646
59.27000 149.924
59.44000 144.212
59.61000 134.380
59.78000 133.015
59.95000 136.108
60.12000 142.232
60.29000 135.634
60.46000 136.058
60.63000 144.269
60.80000 134.340
60.97000 134.500
61.14000 137.577
61.31000 144.134
61.48000 152.197
61.65000 260.559
61.82000 195.377
61.99000 142.112
62.16000 146.797
62.33000 145.993
62.50000 136.649
62.67000 155.118
62.84000 131.963
63.01000 151.438
63.18000 127.348
63.35000 157.951
63.52000 148.565
63.69000 147.854
63.86000 159.546
64.03000 153.314
64.20000 154.977
64.37000 162.269
64.54000 170.492
64.71000 162.669
64.88000 181.808
65.05000 196.704
65.22000 208.770
65.39000 239.708
65.56000 297.304
65.73000 581.634
65.90000 1014.608
66.07000 392.129
66.24000 302.991
66.41000 427.123
66.58000 352.821
66.75000 317.011
66.92000 332.112
67.09000 335.797
67.26000 369.382
67.43000 389.358
67.60000 433.552
67.77000 447.416
67.94000 517.013
68.11000 550.207
68.28000 603.577
68.45000 700.164
68.62000 973.265
68.79000 1752.870
68.96000 9099.066
69.13000 54190.016
69.30000 33910.781
69.47000 9629.174
69.64000 1280.445
69.81000 836.514
69.98000 665.055
70.00000 672.581

File: BTO_Mapping_Theta2Theta_22-09-2025_001_71_45-048_-21-694.xy
20.00000 1062.700
20.17000 1032.462
20.34000 1042.900
20.51000 1036.858
20.68000 1033.403
20.85000 980.743
21.02000 990.063
21.19000 952.795
21.36000 984.251
21.53000 953.883
21.70000 945.757
21.87000 923.898
22.04000 924.957
22.21000 899.532
22.38000 894.625
22.55000 861.876
22.72000 861.964
22.89000 854.589
23.06000 856.904
23.23000 861.601
23.40000 848.850
23.57000 829.791
23.74000 839.404
23.91000 860.196
24.08000 836.279
24.25000 787.735
24.42000 796.929
24.59000 788.787
24.76000 753.672
24.93000 785.497
25.10000 772.214
25.27000 755.144
25.44000 731.630
25.61000 718.716
25.78000 697.792
25.95000 717.052
26.12000 731.021
26.29000 710.769
26.46000 704.703
26.63000 714.353
26.80000 682.015
26.97000 667.745
27.14000 678.498
27.31000 666.063
27.48000 656.737
27.65000 646.611
27.82000 636.906
27.99000 635.838
28.16000 641.133
28.33000 604.593
28.50000 622.555
28.67000 607.145
28.84000 606.657
29.01000 598.702
29.18000 599.071
29.35000 583.070
29.52000 577.386
29.69000 570.263
29.86000 573.194
30.03000 596.716
30.20000 563.258
30.37000 554.512
30.54000 556.652
30.71000 523.200
30.88000 527.592
31.05000 530.022
31.22000 538.296
31.39000 522.405
31.56000 508.978
31.73000 514.144
31.90000 503.991
32.07000 504.267
32.24000 498.740
32.41000 501.957
32.58000 507.333
32.75000 485.239
32.92000 480.669
33.09000 501.188
33.26000 473.799
33.43000 475.063
33.60000 457.687
33.77000 484.715
33.94000 460.850
34.11000 436.421
34.28000 467.595
34.45000 432.511
34.62000 436.720
34.79000 435.493
34.96000 424.918
35.13000 423.523
35.30000 447.937
35.47000 419.285
35.64000 407.354
35.81000 427.458
35.98000 401.511
36.15000 425.465
36.32000 396.525
36.49000 390.982
36.66000 406.486
36.83000 389.304
37.00000 417.614
37.17000 380.517
37.34000 365.750
37.51000 358.016
37.68000 373.433
37.85000 367.151
38.02000 345.338
38.19000 362.953
38.36000 362.318
38.53000 344.829
38.70000 368.012
38.87000 339.432
39.04000 339.769
39.21000 342.718
39.38000 354.260
39.55000 329.624
39.72000 347.079
39.89000 336.156
40.06000 324.370
40.23000 322.520
40.40000 330.691
40.57000 320.770
40.74000 314.200
40.91000 334.108
41.08000 323.017
41.25000 317.220
41.42000 308.204
41.59000 303.963
41.76000 309.185
41.93000 300.582
42.10000 313.651
42.27000 288.118
42.44000 305.962
42.61000 297.863
42.78000 285.616
42.95000 272.783
43.12000 292.081
43.29000 284.132
43.46000 274.235
43.63000 267.787
43.80000 275.012
43.97000 274.542
44.14000 264.967
44.31000 272.326
44.48000 266.196
44.65000 263.300
44.82000 265.743
44.99000 251.499
45.16000 255.015
45.33000 262.253
45.50000 245.240
45.67000 247.746
45.84000 247.363
46.01000 247.071
46.18000 245.407
46.35000 237.548
46.52000 236.366
46.69000 239.825
46.86000 236.197
47.03000 239.788
47.20000 237.514
47.37000 228.417
47.54000 229.263
47.71000 231.584
47.88000 221.119
48.05000 227.757
48.22000 235.069
48.39000 230.559
48.56000 225.800
48.73000 209.694
48.90000 209.609
49.07000 219.954
49.24000 217.808
49.41000 221.154
49.58000 207.781
49.75000 222.366
49.92000 209.109
50.09000 208.905
50.26000 208.037
50.43000 207.567
50.60000 208.485
50.77000 200.190
50.94000 208.528
51.11000 199.125
51.28000 201.554
51.45000 197.654
51.62000 206.321
51.79000 184.967
51.96000 190.250
52.13000 195.052
52.30000 196.514
52.47000 187.437
52.64000 195.512
52.81000 196.439
52.98000 195.965
53.15000 183.836
53.32000 187.784
53.49000 181.535
53.66000 195.740
53.83000 180.150
54.00000 182.199
54.17000 187.751
54.34000 172.766
54.51000 176.038
54.68000 173.033
54.85000 191.047
55.02000 178.146
55.19000 164.510
55.36000 176.351
55.53000 171.570
55.70000 178.270
55.87000 167.572
56.04000 169.196
56.21000 164.943
56.38000 171.174
56.55000 173.895
56.72000 162.799
56.89000 164.136
57.06000 167.357
57.23000 160.270
57.40000 176.680
57.57000 160.769
57.74000 162.976
57.91000 163.219
58.08000 155.452
58.25000 167.423
58.42000 162.024
58.59000 167.709
58.76000 150.962
58.93000 166.400
59.10000 170.970
59.27000 162.894
59.44000 152.531
59.61000 150.356
59.78000 147.115
59.95000 155.465
60.12000 153.900
60.29000 150.595
60.46000 157.974
60.63000 160.840
60.80000 164.127
60.97000 171.914
61.14000 160.217
61.31000 155.199
61.48000 156.817
61.65000 261.029
61.82000 193.113
61.99000 160.587
62.16000 171.847
62.33000 153.145
62.50000 166.261
62.67000 160.973
62.84000 169.442
63.01000 170.788
63.18000 163.329
63.35000 162.758
63.52000 162.244
63.69000 177.884
63.86000 181.564
64.03000 186.683
64.20000 173.709
64.37000 179.324
64.54000 190.901
64.71000 201.447
64.88000 192.044
65.05000 199.618
65.22000 203.045
65.39000 219.693
65.56000 237.216
65.73000 444.320
65.90000 856.517
66.07000 309.039
66.24000 282.243
66.41000 390.726
66.58000 323.797
66.75000 310.959
66.92000 320.424
67.09000 344.928
67.26000 372.468
67.43000 397.543
67.60000 410.143
67.77000 430.427
67.94000 473.404
68.11000 533.349
68.28000 592.927
68.45000 658.286
68.62000 910.894
68.79000 1582.534
68.96000 7856.240
69.13000 46040.473
69.30000 25798.299
69.47000 5182.603
69.64000 1081.760
69.81000 772.828
69.98000 649.513
70.00000 630.782