Folder: Master-Thesis/XRD/XRD/22-09-2025 Dep 2/XY Data (part 2)

File: BTO_Mapping_Theta2Theta_22-09-2025_001_08_18-019_8-678.xy
20.00000 593.131
20.17000 601.313
20.34000 562.379
20.51000 540.045
20.68000 557.703
20.85000 566.282
21.02000 582.572
21.19000 564.575
21.36000 557.569
21.53000 550.979
21.70000 559.650
21.87000 621.739
22.04000 708.580
22.21000 699.423
22.38000 613.374
22.55000 543.160
22.72000 519.096
22.89000 532.195
23.06000 525.176
23.23000 516.646
23.40000 505.740
23.57000 492.066
23.74000 523.919
23.91000 521.372
24.08000 507.322
24.25000 482.575
24.42000 496.354
24.59000 505.885
24.76000 486.948
24.93000 468.659
25.10000 471.737
25.27000 472.631
25.44000 461.157
25.61000 438.170
25.78000 470.783
25.95000 469.460
26.12000 471.016
26.29000 461.799
26.46000 452.837
26.63000 451.051
26.80000 445.837
26.97000 437.949
27.14000 456.838
27.31000 440.946
27.48000 449.587
27.65000 443.863
27.82000 418.241
27.99000 431.595
28.16000 435.325
28.33000 449.214
28.50000 423.579
28.67000 437.478
28.84000 425.202
29.01000 429.129
29.18000 410.318
29.35000 415.282
29.52000 415.800
29.69000 424.042
29.86000 426.642
30.03000 449.158
30.20000 430.262
30.37000 426.106
30.54000 427.157
30.71000 460.267
30.88000 502.166
31.05000 644.919
31.22000 1549.978
31.39000 3009.253
31.56000 1933.189
31.73000 764.713
31.90000 516.646
32.07000 429.688
32.24000 403.247
32.41000 397.681
32.58000 402.109
32.75000 378.208
32.92000 400.703
33.09000 371.763
33.26000 345.228
33.43000 355.895
33.60000 337.294
33.77000 324.676
33.94000 339.894
34.11000 338.209
34.28000 328.666
34.45000 320.686
34.62000 338.666
34.79000 334.990
34.96000 323.089
35.13000 323.410
35.30000 306.927
35.47000 303.863
35.64000 305.773
35.81000 304.310
35.98000 307.979
36.15000 293.895
36.32000 300.026
36.49000 288.046
36.66000 293.020
36.83000 286.530
37.00000 318.135
37.17000 300.494
37.34000 302.138
37.51000 301.385
37.68000 293.094
37.85000 290.504
38.02000 279.567
38.19000 308.133
38.36000 346.353
38.53000 504.227
38.70000 980.125
38.87000 814.345
39.04000 389.399
39.21000 299.032
39.38000 277.559
39.55000 278.501
39.72000 279.803
39.89000 262.672
40.06000 261.584
40.23000 263.936
40.40000 269.924
40.57000 253.212
40.74000 262.547
40.91000 264.631
41.08000 252.706
41.25000 251.692
41.42000 247.921
41.59000 233.299
41.76000 246.871
41.93000 242.044
42.10000 252.527
42.27000 240.990
42.44000 240.107
42.61000 236.843
42.78000 233.169
42.95000 238.120
43.12000 232.039
43.29000 226.277
43.46000 223.397
43.63000 219.251
43.80000 227.459
43.97000 218.352
44.14000 227.966
44.31000 227.773
44.48000 229.216
44.65000 247.412
44.82000 250.954
44.99000 322.224
45.16000 373.403
45.33000 324.665
45.50000 284.552
45.67000 252.959
45.84000 232.858
46.01000 219.922
46.18000 225.412
46.35000 205.394
46.52000 201.151
46.69000 205.530
46.86000 193.304
47.03000 190.752
47.20000 187.641
47.37000 189.220
47.54000 176.140
47.71000 192.514
47.88000 186.237
48.05000 182.801
48.22000 177.246
48.39000 186.756
48.56000 179.769
48.73000 180.493
48.90000 179.977
49.07000 173.907
49.24000 169.941
49.41000 180.253
49.58000 170.548
49.75000 171.058
49.92000 170.926
50.09000 168.290
50.26000 183.667
50.43000 180.080
50.60000 237.650
50.77000 254.185
50.94000 225.593
51.11000 192.159
51.28000 176.357
51.45000 175.258
51.62000 167.065
51.79000 168.307
51.96000 159.973
52.13000 162.278
52.30000 152.582
52.47000 158.492
52.64000 164.250
52.81000 168.102
52.98000 160.582
53.15000 151.173
53.32000 149.269
53.49000 173.439
53.66000 158.283
53.83000 165.641
54.00000 156.443
54.17000 160.384
54.34000 146.955
54.51000 160.970
54.68000 160.413
54.85000 166.259
55.02000 164.447
55.19000 159.295
55.36000 174.479
55.53000 190.594
55.70000 250.896
55.87000 456.549
56.04000 524.680
56.21000 371.900
56.38000 226.197
56.55000 193.286
56.72000 157.705
56.89000 157.755
57.06000 143.785
57.23000 155.890
57.40000 148.278
57.57000 139.225
57.74000 142.510
57.91000 151.885
58.08000 149.355
58.25000 137.405
58.42000 138.341
58.59000 134.730
58.76000 135.293
58.93000 137.103
59.10000 119.940
59.27000 142.355
59.44000 139.600
59.61000 122.598
59.78000 128.778
59.95000 137.914
60.12000 133.530
60.29000 135.200
60.46000 135.001
60.63000 144.485
60.80000 128.448
60.97000 127.168
61.14000 133.220
61.31000 142.381
61.48000 147.961
61.65000 269.096
61.82000 202.242
61.99000 138.616
62.16000 135.934
62.33000 135.517
62.50000 143.554
62.67000 139.909
62.84000 146.230
63.01000 151.530
63.18000 152.787
63.35000 155.916
63.52000 153.436
63.69000 150.126
63.86000 157.080
64.03000 155.547
64.20000 164.371
64.37000 176.477
64.54000 168.896
64.71000 183.362
64.88000 180.230
65.05000 198.950
65.22000 220.768
65.39000 293.961
65.56000 397.865
65.73000 701.241
65.90000 1141.953
66.07000 385.149
66.24000 332.022
66.41000 449.401
66.58000 344.013
66.75000 322.229
66.92000 334.468
67.09000 366.786
67.26000 385.877
67.43000 417.385
67.60000 435.350
67.77000 479.371
67.94000 513.948
68.11000 570.516
68.28000 629.128
68.45000 767.014
68.62000 1066.316
68.79000 2036.838
68.96000 14172.635
69.13000 62207.891
69.30000 36204.824
69.47000 8451.257
69.64000 1285.422
69.81000 853.817
69.98000 709.745
70.00000 699.904

File: BTO_Mapping_Theta2Theta_22-09-2025_001_09_27-029_13-017.xy
20.00000 563.224
20.17000 534.768
20.34000 553.226
20.51000 549.096
20.68000 546.031
20.85000 548.021
21.02000 561.171
21.19000 552.340
21.36000 559.932
21.53000 549.439
21.70000 561.661
21.87000 600.716
22.04000 695.235
22.21000 669.597
22.38000 625.682
22.55000 537.703
22.72000 539.331
22.89000 522.289
23.06000 498.037
23.23000 517.518
23.40000 504.725
23.57000 523.003
23.74000 537.880
23.91000 527.451
24.08000 517.982
24.25000 504.344
24.42000 512.441
24.59000 499.901
24.76000 484.625
24.93000 489.912
25.10000 472.020
25.27000 471.075
25.44000 468.873
25.61000 452.529
25.78000 445.372
25.95000 468.505
26.12000 450.891
26.29000 456.046
26.46000 451.197
26.63000 450.699
26.80000 461.471
26.97000 457.825
27.14000 427.949
27.31000 440.870
27.48000 423.863
27.65000 433.753
27.82000 413.929
27.99000 418.941
28.16000 412.547
28.33000 424.679
28.50000 432.845
28.67000 415.347
28.84000 423.230
29.01000 408.331
29.18000 427.719
29.35000 407.798
29.52000 427.492
29.69000 413.910
29.86000 399.921
30.03000 420.219
30.20000 423.304
30.37000 430.080
30.54000 415.863
30.71000 450.567
30.88000 462.840
31.05000 587.119
31.22000 1233.712
31.39000 2399.399
31.56000 1695.986
31.73000 742.915
31.90000 519.919
32.07000 427.954
32.24000 415.772
32.41000 388.607
32.58000 374.294
32.75000 373.918
32.92000 382.896
33.09000 361.473
33.26000 345.914
33.43000 347.230
33.60000 332.178
33.77000 328.156
33.94000 331.110
34.11000 333.007
34.28000 338.872
34.45000 340.658
34.62000 342.190
34.79000 322.984
34.96000 327.910
35.13000 312.310
35.30000 326.750
35.47000 317.104
35.64000 308.228
35.81000 304.007
35.98000 302.711
36.15000 299.844
36.32000 309.022
36.49000 279.496
36.66000 306.757
36.83000 315.090
37.00000 294.631
37.17000 295.252
37.34000 281.783
37.51000 287.304
37.68000 280.745
37.85000 300.801
38.02000 285.055
38.19000 293.640
38.36000 322.628
38.53000 482.722
38.70000 969.829
38.87000 879.500
39.04000 401.742
39.21000 306.216
39.38000 262.079
39.55000 285.352
39.72000 296.509
39.89000 258.308
40.06000 270.842
40.23000 253.298
40.40000 254.835
40.57000 236.252
40.74000 252.064
40.91000 253.761
41.08000 246.724
41.25000 247.347
41.42000 245.296
41.59000 220.791
41.76000 234.550
41.93000 235.214
42.10000 253.053
42.27000 236.374
42.44000 243.579
42.61000 240.076
42.78000 232.479
42.95000 227.045
43.12000 220.958
43.29000 219.518
43.46000 227.309
43.63000 233.043
43.80000 212.797
43.97000 226.745
44.14000 218.952
44.31000 222.371
44.48000 228.375
44.65000 230.450
44.82000 266.882
44.99000 297.892
45.16000 321.593
45.33000 312.401
45.50000 270.717
45.67000 258.305
45.84000 240.637
46.01000 213.368
46.18000 213.965
46.35000 198.059
46.52000 211.305
46.69000 204.292
46.86000 199.110
47.03000 205.309
47.20000 195.271
47.37000 194.540
47.54000 176.282
47.71000 184.583
47.88000 183.843
48.05000 187.725
48.22000 180.921
48.39000 170.056
48.56000 181.441
48.73000 178.942
48.90000 177.463
49.07000 181.067
49.24000 185.242
49.41000 175.338
49.58000 184.839
49.75000 169.320
49.92000 168.960
50.09000 175.969
50.26000 172.905
50.43000 177.000
50.60000 220.509
50.77000 245.947
50.94000 227.584
51.11000 204.576
51.28000 178.868
51.45000 175.325
51.62000 162.017
51.79000 171.248
51.96000 163.116
52.13000 166.425
52.30000 169.155
52.47000 165.166
52.64000 163.160
52.81000 148.646
52.98000 158.778
53.15000 156.844
53.32000 150.597
53.49000 175.328
53.66000 149.677
53.83000 154.722
54.00000 159.239
54.17000 154.824
54.34000 152.733
54.51000 166.997
54.68000 151.217
54.85000 162.022
55.02000 153.804
55.19000 157.958
55.36000 155.355
55.53000 185.676
55.70000 234.196
55.87000 427.104
56.04000 558.911
56.21000 399.931
56.38000 265.279
56.55000 183.618
56.72000 164.172
56.89000 150.747
57.06000 141.681
57.23000 143.905
57.40000 135.997
57.57000 142.548
57.74000 143.813
57.91000 148.209
58.08000 138.936
58.25000 131.021
58.42000 127.879
58.59000 136.486
58.76000 136.145
58.93000 131.715
59.10000 142.409
59.27000 120.349
59.44000 128.906
59.61000 137.569
59.78000 133.677
59.95000 142.227
60.12000 131.160
60.29000 131.058
60.46000 124.893
60.63000 133.509
60.80000 132.188
60.97000 134.263
61.14000 139.586
61.31000 136.840
61.48000 147.912
61.65000 272.004
61.82000 191.019
61.99000 140.711
62.16000 144.232
62.33000 137.011
62.50000 135.344
62.67000 145.598
62.84000 153.343
63.01000 152.925
63.18000 150.091
63.35000 140.164
63.52000 155.640
63.69000 151.473
63.86000 145.458
64.03000 153.325
64.20000 155.082
64.37000 165.615
64.54000 166.663
64.71000 174.697
64.88000 174.976
65.05000 190.926
65.22000 210.525
65.39000 259.042
65.56000 355.515
65.73000 649.435
65.90000 1081.961
66.07000 379.736
66.24000 312.457
66.41000 441.198
66.58000 345.521
66.75000 314.853
66.92000 337.630
67.09000 359.680
67.26000 386.125
67.43000 400.283
67.60000 451.836
67.77000 456.568
67.94000 510.444
68.11000 554.951
68.28000 635.059
68.45000 710.193
68.62000 1004.617
68.79000 1910.559
68.96000 12607.496
69.13000 57647.016
69.30000 33822.484
69.47000 8156.188
69.64000 1260.551
69.81000 835.148
69.98000 687.331
70.00000 667.216

File: BTO_Mapping_Theta2Theta_22-09-2025_001_10_36-039_17-355.xy
20.00000 570.026
20.17000 577.724
20.34000 557.203
20.51000 559.410
20.68000 552.268
20.85000 558.176
21.02000 520.555
21.19000 548.968
21.36000 539.783
21.53000 559.564
21.70000 551.724
21.87000 589.206
22.04000 640.956
22.21000 656.508
22.38000 603.317
22.55000 558.867
22.72000 489.667
22.89000 525.449
23.06000 525.021
23.23000 502.266
23.40000 525.237
23.57000 518.313
23.74000 505.903
23.91000 526.797
24.08000 531.463
24.25000 513.874
24.42000 488.934
24.59000 495.535
24.76000 485.771
24.93000 474.236
25.10000 467.302
25.27000 480.386
25.44000 448.682
25.61000 469.328
25.78000 463.229
25.95000 458.420
26.12000 462.844
26.29000 434.033
26.46000 470.983
26.63000 437.184
26.80000 433.511
26.97000 420.487
27.14000 451.361
27.31000 433.925
27.48000 439.009
27.65000 423.052
27.82000 418.877
27.99000 418.932
28.16000 438.042
28.33000 445.896
28.50000 409.596
28.67000 435.025
28.84000 420.690
29.01000 410.041
29.18000 414.183
29.35000 403.296
29.52000 400.439
29.69000 430.569
29.86000 407.399
30.03000 406.599
30.20000 413.449
30.37000 423.134
30.54000 416.069
30.71000 443.775
30.88000 459.718
31.05000 547.620
31.22000 956.185
31.39000 1930.459
31.56000 1511.104
31.73000 717.331
31.90000 495.353
32.07000 408.504
32.24000 378.387
32.41000 394.734
32.58000 387.693
32.75000 376.260
32.92000 366.956
33.09000 348.645
33.26000 335.783
33.43000 335.873
33.60000 350.369
33.77000 321.587
33.94000 315.717
34.11000 335.934
34.28000 342.800
34.45000 334.924
34.62000 333.733
34.79000 323.586
34.96000 323.739
35.13000 320.595
35.30000 311.660
35.47000 307.889
35.64000 304.958
35.81000 309.191
35.98000 298.125
36.15000 305.792
36.32000 294.036
36.49000 313.880
36.66000 299.601
36.83000 300.849
37.00000 316.894
37.17000 300.504
37.34000 277.545
37.51000 290.079
37.68000 299.639
37.85000 281.378
38.02000 281.111
38.19000 296.075
38.36000 319.231
38.53000 446.836
38.70000 909.506
38.87000 887.865
39.04000 435.359
39.21000 298.919
39.38000 285.089
39.55000 272.309
39.72000 272.579
39.89000 273.353
40.06000 258.659
40.23000 263.323
40.40000 246.564
40.57000 251.304
40.74000 247.894
40.91000 247.568
41.08000 261.329
41.25000 253.401
41.42000 241.077
41.59000 245.427
41.76000 228.555
41.93000 238.818
42.10000 250.965
42.27000 230.660
42.44000 239.050
42.61000 226.681
42.78000 237.191
42.95000 227.664
43.12000 225.863
43.29000 229.042
43.46000 221.138
43.63000 219.399
43.80000 230.251
43.97000 231.764
44.14000 231.177
44.31000 216.827
44.48000 225.800
44.65000 240.616
44.82000 253.442
44.99000 285.235
45.16000 314.899
45.33000 279.194
45.50000 273.260
45.67000 246.883
45.84000 224.789
46.01000 223.817
46.18000 212.219
46.35000 210.073
46.52000 196.739
46.69000 206.212
46.86000 204.634
47.03000 194.837
47.20000 196.066
47.37000 192.358
47.54000 183.507
47.71000 185.314
47.88000 178.555
48.05000 186.415
48.22000 178.449
48.39000 193.510
48.56000 177.728
48.73000 178.084
48.90000 179.938
49.07000 186.328
49.24000 180.428
49.41000 168.959
49.58000 182.173
49.75000 180.188
49.92000 175.625
50.09000 176.753
50.26000 174.008
50.43000 190.962
50.60000 206.408
50.77000 217.489
50.94000 216.246
51.11000 183.962
51.28000 172.825
51.45000 170.269
51.62000 162.438
51.79000 174.525
51.96000 158.570
52.13000 151.112
52.30000 158.425
52.47000 154.393
52.64000 163.441
52.81000 165.083
52.98000 154.151
53.15000 157.055
53.32000 164.117
53.49000 161.747
53.66000 155.633
53.83000 154.751
54.00000 168.881
54.17000 147.872
54.34000 151.894
54.51000 155.949
54.68000 161.626
54.85000 150.054
55.02000 147.693
55.19000 159.524
55.36000 168.277
55.53000 190.116
55.70000 241.675
55.87000 410.132
56.04000 602.976
56.21000 497.778
56.38000 281.147
56.55000 190.682
56.72000 165.017
56.89000 152.350
57.06000 151.792
57.23000 141.066
57.40000 140.053
57.57000 141.618
57.74000 132.972
57.91000 142.297
58.08000 135.232
58.25000 140.258
58.42000 137.036
58.59000 137.470
58.76000 148.217
58.93000 125.650
59.10000 131.573
59.27000 122.689
59.44000 141.719
59.61000 131.517
59.78000 134.368
59.95000 124.904
60.12000 128.259
60.29000 136.525
60.46000 133.926
60.63000 127.880
60.80000 127.998
60.97000 131.409
61.14000 136.532
61.31000 128.910
61.48000 143.846
61.65000 265.649
61.82000 215.137
61.99000 135.781
62.16000 136.678
62.33000 139.908
62.50000 139.892
62.67000 147.312
62.84000 140.300
63.01000 154.621
63.18000 142.854
63.35000 151.899
63.52000 143.353
63.69000 145.533
63.86000 152.461
64.03000 158.648
64.20000 162.037
64.37000 163.567
64.54000 159.473
64.71000 167.545
64.88000 183.256
65.05000 185.703
65.22000 210.639
65.39000 247.569
65.56000 303.165
65.73000 582.545
65.90000 1011.018
66.07000 376.080
66.24000 315.258
66.41000 415.905
66.58000 327.331
66.75000 306.692
66.92000 318.074
67.09000 359.452
67.26000 393.088
67.43000 399.454
67.60000 434.847
67.77000 444.479
67.94000 507.737
68.11000 549.731
68.28000 626.873
68.45000 716.180
68.62000 965.434
68.79000 1745.758
68.96000 10958.873
69.13000 54541.211
69.30000 32731.357
69.47000 8304.547
69.64000 1250.610
69.81000 840.096
69.98000 665.170
70.00000 663.874

File: BTO_Mapping_Theta2Theta_22-09-2025_001_15_24-940_31-273.xy
20.00000 569.261
20.17000 559.658
20.34000 568.620
20.51000 561.830
20.68000 554.697
20.85000 551.096
21.02000 559.325
21.19000 567.625
21.36000 560.445
21.53000 556.973
21.70000 544.987
21.87000 584.256
22.04000 681.573
22.21000 688.473
22.38000 623.043
22.55000 552.967
22.72000 548.313
22.89000 532.524
23.06000 515.625
23.23000 499.227
23.40000 513.327
23.57000 515.825
23.74000 530.779
23.91000 520.097
24.08000 518.331
24.25000 515.134
24.42000 495.588
24.59000 494.374
24.76000 493.473
24.93000 470.011
25.10000 486.318
25.27000 470.706
25.44000 489.593
25.61000 467.279
25.78000 474.724
25.95000 444.265
26.12000 433.822
26.29000 460.189
26.46000 431.748
26.63000 448.241
26.80000 456.866
26.97000 437.143
27.14000 451.601
27.31000 444.573
27.48000 425.205
27.65000 423.755
27.82000 435.801
27.99000 428.069
28.16000 439.940
28.33000 435.401
28.50000 422.274
28.67000 406.206
28.84000 419.404
29.01000 414.921
29.18000 407.721
29.35000 406.030
29.52000 425.469
29.69000 414.947
29.86000 418.412
30.03000 442.846
30.20000 422.004
30.37000 433.157
30.54000 430.476
30.71000 434.056
30.88000 458.415
31.05000 555.502
31.22000 1097.920
31.39000 2270.127
31.56000 1670.344
31.73000 765.532
31.90000 489.025
32.07000 428.963
32.24000 420.260
32.41000 392.030
32.58000 376.859
32.75000 387.545
32.92000 376.430
33.09000 348.662
33.26000 351.484
33.43000 350.513
33.60000 345.453
33.77000 348.241
33.94000 330.322
34.11000 331.678
34.28000 334.377
34.45000 333.672
34.62000 336.039
34.79000 321.024
34.96000 316.194
35.13000 321.709
35.30000 294.207
35.47000 303.347
35.64000 321.178
35.81000 302.460
35.98000 301.586
36.15000 315.451
36.32000 311.620
36.49000 282.320
36.66000 282.956
36.83000 294.566
37.00000 310.702
37.17000 299.863
37.34000 291.547
37.51000 319.306
37.68000 292.124
37.85000 288.736
38.02000 303.079
38.19000 298.164
38.36000 327.421
38.53000 459.260
38.70000 933.998
38.87000 875.054
39.04000 440.183
39.21000 305.560
39.38000 279.575
39.55000 266.556
39.72000 279.849
39.89000 275.527
40.06000 268.208
40.23000 264.679
40.40000 263.300
40.57000 261.742
40.74000 242.234
40.91000 248.860
41.08000 233.251
41.25000 245.793
41.42000 252.379
41.59000 249.505
41.76000 234.686
41.93000 236.555
42.10000 237.565
42.27000 240.412
42.44000 229.570
42.61000 227.320
42.78000 228.469
42.95000 226.238
43.12000 217.490
43.29000 218.963
43.46000 231.133
43.63000 227.464
43.80000 229.975
43.97000 222.148
44.14000 222.762
44.31000 219.272
44.48000 234.851
44.65000 241.687
44.82000 265.580
44.99000 290.838
45.16000 325.746
45.33000 312.402
45.50000 272.060
45.67000 255.866
45.84000 230.227
46.01000 220.160
46.18000 198.962
46.35000 208.053
46.52000 204.225
46.69000 204.161
46.86000 211.764
47.03000 207.378
47.20000 197.804
47.37000 190.983
47.54000 182.181
47.71000 184.103
47.88000 188.193
48.05000 190.459
48.22000 193.757
48.39000 187.801
48.56000 185.166
48.73000 186.081
48.90000 178.494
49.07000 175.348
49.24000 161.014
49.41000 172.486
49.58000 176.359
49.75000 179.670
49.92000 170.785
50.09000 167.178
50.26000 182.323
50.43000 178.968
50.60000 211.245
50.77000 244.918
50.94000 232.916
51.11000 190.887
51.28000 181.083
51.45000 176.586
51.62000 173.822
51.79000 163.220
51.96000 179.489
52.13000 160.949
52.30000 157.268
52.47000 161.063
52.64000 163.576
52.81000 158.336
52.98000 157.473
53.15000 153.416
53.32000 167.859
53.49000 156.736
53.66000 159.541
53.83000 159.620
54.00000 152.640
54.17000 157.819
54.34000 162.219
54.51000 159.087
54.68000 156.773
54.85000 155.208
55.02000 156.693
55.19000 158.615
55.36000 168.325
55.53000 184.421
55.70000 239.807
55.87000 422.881
56.04000 549.329
56.21000 446.065
56.38000 257.610
56.55000 186.056
56.72000 162.193
56.89000 159.797
57.06000 149.248
57.23000 143.249
57.40000 139.860
57.57000 144.081
57.74000 137.547
57.91000 144.778
58.08000 143.025
58.25000 139.617
58.42000 134.398
58.59000 132.110
58.76000 146.727
58.93000 121.815
59.10000 130.238
59.27000 137.646
59.44000 137.675
59.61000 136.577
59.78000 135.196
59.95000 132.673
60.12000 131.524
60.29000 127.816
60.46000 139.654
60.63000 131.425
60.80000 145.662
60.97000 135.289
61.14000 137.646
61.31000 135.486
61.48000 148.582
61.65000 263.726
61.82000 193.114
61.99000 144.710
62.16000 141.493
62.33000 138.348
62.50000 147.670
62.67000 142.567
62.84000 147.074
63.01000 148.322
63.18000 147.523
63.35000 143.046
63.52000 141.589
63.69000 151.111
63.86000 149.221
64.03000 153.184
64.20000 160.065
64.37000 158.864
64.54000 163.300
64.71000 176.397
64.88000 180.403
65.05000 192.989
65.22000 201.867
65.39000 242.555
65.56000 337.102
65.73000 630.092
65.90000 1057.605
66.07000 378.661
66.24000 318.134
66.41000 425.876
66.58000 345.085
66.75000 321.060
66.92000 339.737
67.09000 352.957
67.26000 369.378
67.43000 409.246
67.60000 437.282
67.77000 461.987
67.94000 511.733
68.11000 554.270
68.28000 638.573
68.45000 729.714
68.62000 1060.254
68.79000 1901.989
68.96000 12614.005
69.13000 58109.867
69.30000 34210.246
69.47000 8316.275
69.64000 1256.732
69.81000 834.682
69.98000 671.162
70.00000 662.290

File: BTO_Mapping_Theta2Theta_22-09-2025_001_17_2-225_9-749.xy
20.00000 575.658
20.17000 540.182
20.34000 561.190
20.51000 562.596
20.68000 538.593
20.85000 564.784
21.02000 561.163
21.19000 559.972
21.36000 553.542
21.53000 567.701
21.70000 597.492
21.87000 677.992
22.04000 820.646
22.21000 741.046
22.38000 620.786
22.55000 548.645
22.72000 517.984
22.89000 526.621
23.06000 525.616
23.23000 521.472
23.40000 520.212
23.57000 492.082
23.74000 495.007
23.91000 493.796
24.08000 508.696
24.25000 493.791
24.42000 495.257
24.59000 484.646
24.76000 481.268
24.93000 483.744
25.10000 495.885
25.27000 464.073
25.44000 473.779
25.61000 438.362
25.78000 453.059
25.95000 461.601
26.12000 447.003
26.29000 460.822
26.46000 457.881
26.63000 465.294
26.80000 453.226
26.97000 436.238
27.14000 439.116
27.31000 436.835
27.48000 453.327
27.65000 433.379
27.82000 433.701
27.99000 415.562
28.16000 450.647
28.33000 436.210
28.50000 418.756
28.67000 405.600
28.84000 430.900
29.01000 411.441
29.18000 423.092
29.35000 413.092
29.52000 419.098
29.69000 432.015
29.86000 426.371
30.03000 443.386
30.20000 453.564
30.37000 439.122
30.54000 451.090
30.71000 483.303
30.88000 557.442
31.05000 719.985
31.22000 1888.789
31.39000 3449.427
31.56000 2102.552
31.73000 829.776
31.90000 529.432
32.07000 439.425
32.24000 418.172
32.41000 411.699
32.58000 387.678
32.75000 401.462
32.92000 434.318
33.09000 372.362
33.26000 356.897
33.43000 367.859
33.60000 326.727
33.77000 364.534
33.94000 347.770
34.11000 342.106
34.28000 334.814
34.45000 320.410
34.62000 332.475
34.79000 319.571
34.96000 318.940
35.13000 317.949
35.30000 313.727
35.47000 312.383
35.64000 309.967
35.81000 314.774
35.98000 315.605
36.15000 309.340
36.32000 291.343
36.49000 303.248
36.66000 291.680
36.83000 303.794
37.00000 298.723
37.17000 314.022
37.34000 294.604
37.51000 314.771
37.68000 299.594
37.85000 300.643
38.02000 295.141
38.19000 305.977
38.36000 385.088
38.53000 586.652
38.70000 988.958
38.87000 711.004
39.04000 391.577
39.21000 305.292
39.38000 299.250
39.55000 274.532
39.72000 268.610
39.89000 274.373
40.06000 256.852
40.23000 265.436
40.40000 268.132
40.57000 258.289
40.74000 267.127
40.91000 240.078
41.08000 239.453
41.25000 254.777
41.42000 248.952
41.59000 249.823
41.76000 238.731
41.93000 241.301
42.10000 240.721
42.27000 242.552
42.44000 229.250
42.61000 249.498
42.78000 227.502
42.95000 246.304
43.12000 231.110
43.29000 237.697
43.46000 236.387
43.63000 232.460
43.80000 217.483
43.97000 218.074
44.14000 234.080
44.31000 231.828
44.48000 228.662
44.65000 255.998
44.82000 309.698
44.99000 411.315
45.16000 447.637
45.33000 369.761
45.50000 284.583
45.67000 264.883
45.84000 232.084
46.01000 234.412
46.18000 203.558
46.35000 197.243
46.52000 203.955
46.69000 200.331
46.86000 195.314
47.03000 196.876
47.20000 189.223
47.37000 200.016
47.54000 194.227
47.71000 193.953
47.88000 186.439
48.05000 194.851
48.22000 182.738
48.39000 176.618
48.56000 193.392
48.73000 172.922
48.90000 182.923
49.07000 183.413
49.24000 184.154
49.41000 184.362
49.58000 181.871
49.75000 172.068
49.92000 182.149
50.09000 182.962
50.26000 190.305
50.43000 187.990
50.60000 250.817
50.77000 255.381
50.94000 230.821
51.11000 198.500
51.28000 180.087
51.45000 176.967
51.62000 163.969
51.79000 159.225
51.96000 164.276
52.13000 161.655
52.30000 158.991
52.47000 163.655
52.64000 167.733
52.81000 155.711
52.98000 158.605
53.15000 163.549
53.32000 167.464
53.49000 159.764
53.66000 162.674
53.83000 161.571
54.00000 160.508
54.17000 162.010
54.34000 149.645
54.51000 160.062
54.68000 164.625
54.85000 155.012
55.02000 163.693
55.19000 159.813
55.36000 179.434
55.53000 209.718
55.70000 310.596
55.87000 481.299
56.04000 528.856
56.21000 363.257
56.38000 231.447
56.55000 191.282
56.72000 169.254
56.89000 159.621
57.06000 142.460
57.23000 144.805
57.40000 139.975
57.57000 151.396
57.74000 153.067
57.91000 149.151
58.08000 131.532
58.25000 144.415
58.42000 137.303
58.59000 143.018
58.76000 137.798
58.93000 143.754
59.10000 131.399
59.27000 132.668
59.44000 137.077
59.61000 137.329
59.78000 133.740
59.95000 134.994
60.12000 132.208
60.29000 132.761
60.46000 130.150
60.63000 124.572
60.80000 128.361
60.97000 139.444
61.14000 141.701
61.31000 143.945
61.48000 140.516
61.65000 302.878
61.82000 221.643
61.99000 151.047
62.16000 147.433
62.33000 141.052
62.50000 141.100
62.67000 153.757
62.84000 143.336
63.01000 146.147
63.18000 164.649
63.35000 151.267
63.52000 152.764
63.69000 149.961
63.86000 154.694
64.03000 162.548
64.20000 145.419
64.37000 166.435
64.54000 169.965
64.71000 160.582
64.88000 187.930
65.05000 204.670
65.22000 234.103
65.39000 329.850
65.56000 446.285
65.73000 811.848
65.90000 1337.033
66.07000 446.493
66.24000 352.829
66.41000 506.147
66.58000 363.347
66.75000 345.340
66.92000 367.743
67.09000 380.634
67.26000 402.660
67.43000 443.575
67.60000 459.560
67.77000 534.080
67.94000 561.355
68.11000 607.839
68.28000 699.379
68.45000 835.906
68.62000 1247.613
68.79000 2481.588
68.96000 19291.066
69.13000 77893.148
69.30000 45290.043
69.47000 10354.253
69.64000 1501.656
69.81000 962.533
69.98000 768.778
70.00000 762.808