Folder: Master-Thesis/XRD/XRD/22-09-2025 Dep 2/XY Data

File: BTO_fwhm_results.csv
X Coordinates,Y Coordinates,FWHM
-40.0,0.0,0.288316
-36.039,-17.355,0.304784
-36.039,17.355,0.308288
-30.0,0.0,0.320514
-27.029,-13.017,0.329458
-27.029,13.017,0.333864
-24.94,-31.273,0.337592
-24.94,31.273,0.335665
-20.0,0.0,0.337777
-18.705,-23.455,0.345257
-18.705,23.455,0.341711
-18.019,-8.678,0.343181
-18.019,8.678,0.343024
-12.47,-15.637,0.342688
-12.47,15.637,0.343102
-10.0,0.0,0.354136
-9.01,-4.339,0.349595
-9.01,4.339,0.345689
-8.901,-38.997,0.351151
-8.901,38.997,0.352582
-6.676,-29.248,0.351007
-6.676,29.248,0.344593
-6.235,-7.818,0.353915
-6.235,7.818,0.346078
-4.45,-19.499,0.346905
-4.45,19.499,0.342602
-2.225,-9.749,0.348062
-2.225,9.749,0.341588
0.0,0.0,0.34695
2.225,-9.749,0.3457
2.225,9.749,0.348126
4.45,-19.499,0.351274
4.45,19.499,0.342844
6.235,-7.818,0.341478
6.235,7.818,0.348599
6.676,-29.248,0.34993
6.676,29.248,0.342791
8.901,-38.997,0.342378
8.901,38.997,0.337445
9.01,-4.339,0.338523
9.01,4.339,0.343303
10.0,0.0,0.339735
12.47,-15.637,0.344896
12.47,15.637,0.339901
18.019,-8.678,0.33873
18.019,8.678,0.33941
18.705,-23.455,0.342804
18.705,23.455,0.339176
20.0,0.0,0.341091
24.94,-31.273,0.349665
24.94,31.273,0.342779
27.029,-13.017,0.349161
27.029,13.017,0.353849
30.0,0.0,0.350095
36.039,-17.355,0.353499
36.039,17.355,0.350105
40.0,0.0,0.353082

File: BTO_Mapping_Theta2Theta_22-09-2025_001_02_10-000_0-000.xy
20.00000 557.702
20.17000 553.855
20.34000 538.765
20.51000 547.790
20.68000 550.000
20.85000 546.661
21.02000 555.939
21.19000 555.438
21.36000 545.211
21.53000 546.985
21.70000 564.846
21.87000 649.929
22.04000 785.454
22.21000 737.613
22.38000 636.091
22.55000 570.452
22.72000 516.162
22.89000 523.112
23.06000 516.064
23.23000 521.979
23.40000 492.693
23.57000 513.406
23.74000 503.768
23.91000 519.609
24.08000 516.584
24.25000 506.679
24.42000 488.143
24.59000 489.935
24.76000 489.254
24.93000 483.434
25.10000 455.032
25.27000 471.737
25.44000 478.117
25.61000 447.385
25.78000 482.600
25.95000 449.824
26.12000 454.980
26.29000 471.400
26.46000 448.639
26.63000 441.770
26.80000 432.464
26.97000 445.290
27.14000 437.939
27.31000 419.311
27.48000 445.672
27.65000 447.102
27.82000 439.408
27.99000 431.690
28.16000 425.987
28.33000 429.359
28.50000 424.553
28.67000 416.323
28.84000 415.503
29.01000 411.068
29.18000 421.146
29.35000 417.995
29.52000 409.539
29.69000 385.226
29.86000 432.715
30.03000 454.644
30.20000 442.270
30.37000 423.866
30.54000 442.131
30.71000 462.402
30.88000 524.328
31.05000 738.012
31.22000 1761.157
31.39000 3402.777
31.56000 2052.754
31.73000 794.297
31.90000 533.679
32.07000 434.370
32.24000 426.220
32.41000 412.976
32.58000 380.781
32.75000 400.714
32.92000 408.273
33.09000 378.476
33.26000 363.977
33.43000 352.073
33.60000 351.739
33.77000 345.854
33.94000 339.490
34.11000 332.140
34.28000 340.135
34.45000 318.304
34.62000 332.555
34.79000 318.553
34.96000 337.429
35.13000 347.809
35.30000 302.620
35.47000 315.960
35.64000 318.042
35.81000 307.972
35.98000 316.624
36.15000 302.794
36.32000 304.915
36.49000 290.260
36.66000 307.207
36.83000 309.290
37.00000 302.263
37.17000 301.991
37.34000 295.887
37.51000 285.578
37.68000 309.989
37.85000 284.695
38.02000 311.674
38.19000 316.897
38.36000 341.632
38.53000 554.221
38.70000 1017.093
38.87000 765.288
39.04000 386.524
39.21000 295.224
39.38000 282.616
39.55000 261.610
39.72000 286.691
39.89000 266.351
40.06000 266.539
40.23000 257.287
40.40000 269.442
40.57000 252.775
40.74000 262.284
40.91000 245.682
41.08000 260.251
41.25000 233.045
41.42000 253.727
41.59000 250.494
41.76000 231.023
41.93000 241.052
42.10000 227.721
42.27000 238.325
42.44000 254.003
42.61000 236.771
42.78000 228.530
42.95000 232.884
43.12000 225.751
43.29000 229.835
43.46000 243.814
43.63000 219.824
43.80000 223.626
43.97000 237.488
44.14000 226.133
44.31000 223.523
44.48000 226.349
44.65000 255.517
44.82000 278.037
44.99000 361.678
45.16000 404.317
45.33000 335.559
45.50000 286.727
45.67000 263.544
45.84000 223.772
46.01000 232.332
46.18000 225.460
46.35000 224.805
46.52000 200.551
46.69000 186.319
46.86000 193.006
47.03000 192.464
47.20000 184.714
47.37000 185.817
47.54000 182.839
47.71000 179.505
47.88000 188.550
48.05000 188.655
48.22000 189.044
48.39000 190.187
48.56000 184.180
48.73000 184.139
48.90000 183.476
49.07000 167.334
49.24000 169.236
49.41000 174.030
49.58000 179.494
49.75000 180.933
49.92000 172.357
50.09000 181.670
50.26000 192.390
50.43000 205.199
50.60000 248.502
50.77000 250.921
50.94000 225.593
51.11000 194.654
51.28000 175.133
51.45000 176.741
51.62000 168.298
51.79000 163.476
51.96000 169.064
52.13000 165.815
52.30000 144.814
52.47000 166.089
52.64000 155.172
52.81000 170.197
52.98000 166.888
53.15000 162.307
53.32000 157.543
53.49000 165.257
53.66000 165.989
53.83000 154.807
54.00000 154.816
54.17000 154.721
54.34000 159.026
54.51000 163.474
54.68000 154.724
54.85000 164.713
55.02000 169.601
55.19000 173.254
55.36000 175.271
55.53000 202.531
55.70000 276.501
55.87000 464.932
56.04000 527.430
56.21000 357.823
56.38000 246.469
56.55000 191.253
56.72000 164.549
56.89000 161.413
57.06000 153.317
57.23000 146.822
57.40000 150.082
57.57000 139.381
57.74000 149.479
57.91000 130.431
58.08000 135.496
58.25000 136.364
58.42000 143.233
58.59000 135.587
58.76000 147.678
58.93000 142.124
59.10000 143.063
59.27000 139.408
59.44000 133.588
59.61000 146.775
59.78000 131.660
59.95000 124.709
60.12000 143.702
60.29000 133.045
60.46000 140.402
60.63000 135.959
60.80000 136.312
60.97000 135.671
61.14000 138.834
61.31000 141.768
61.48000 147.354
61.65000 289.095
61.82000 208.743
61.99000 145.064
62.16000 152.552
62.33000 134.963
62.50000 142.819
62.67000 151.067
62.84000 158.381
63.01000 137.879
63.18000 141.953
63.35000 159.700
63.52000 143.199
63.69000 149.046
63.86000 161.547
64.03000 165.104
64.20000 154.857
64.37000 154.583
64.54000 165.063
64.71000 173.151
64.88000 180.661
65.05000 200.887
65.22000 237.241
65.39000 313.769
65.56000 411.200
65.73000 773.850
65.90000 1270.292
66.07000 414.122
66.24000 349.363
66.41000 481.017
66.58000 359.152
66.75000 334.644
66.92000 341.736
67.09000 378.722
67.26000 413.694
67.43000 424.327
67.60000 455.802
67.77000 507.930
67.94000 537.767
68.11000 578.617
68.28000 666.430
68.45000 789.942
68.62000 1140.877
68.79000 2217.451
68.96000 16183.253
69.13000 69114.609
69.30000 40062.195
69.47000 9242.466
69.64000 1378.150
69.81000 896.883
69.98000 732.017
70.00000 724.940

File: BTO_Mapping_Theta2Theta_22-09-2025_001_03_20-000_0-000.xy
20.00000 572.482
20.17000 566.476
20.34000 572.169
20.51000 560.145
20.68000 554.859
20.85000 568.164
21.02000 551.869
21.19000 547.876
21.36000 547.239
21.53000 565.232
21.70000 558.792
21.87000 596.446
22.04000 704.935
22.21000 701.450
22.38000 624.378
22.55000 562.078
22.72000 532.628
22.89000 523.409
23.06000 517.878
23.23000 506.799
23.40000 498.925
23.57000 499.367
23.74000 513.524
23.91000 534.825
24.08000 506.170
24.25000 502.770
24.42000 517.601
24.59000 492.318
24.76000 484.704
24.93000 491.801
25.10000 479.581
25.27000 474.480
25.44000 466.432
25.61000 454.933
25.78000 466.826
25.95000 455.945
26.12000 431.445
26.29000 454.353
26.46000 451.123
26.63000 456.914
26.80000 442.136
26.97000 423.149
27.14000 443.645
27.31000 432.629
27.48000 438.156
27.65000 413.450
27.82000 433.961
27.99000 437.231
28.16000 414.716
28.33000 411.736
28.50000 424.515
28.67000 415.654
28.84000 410.190
29.01000 425.231
29.18000 416.206
29.35000 426.629
29.52000 413.134
29.69000 422.422
29.86000 436.775
30.03000 445.540
30.20000 435.139
30.37000 434.720
30.54000 431.994
30.71000 472.879
30.88000 511.530
31.05000 632.803
31.22000 1495.770
31.39000 2903.696
31.56000 1883.484
31.73000 771.241
31.90000 523.398
32.07000 439.222
32.24000 402.412
32.41000 398.860
32.58000 404.456
32.75000 379.979
32.92000 410.541
33.09000 363.113
33.26000 347.667
33.43000 348.822
33.60000 344.596
33.77000 348.945
33.94000 327.018
34.11000 342.436
34.28000 321.864
34.45000 327.192
34.62000 341.942
34.79000 341.788
34.96000 325.525
35.13000 322.128
35.30000 323.716
35.47000 302.247
35.64000 303.494
35.81000 309.957
35.98000 306.861
36.15000 305.566
36.32000 297.800
36.49000 294.935
36.66000 292.932
36.83000 293.630
37.00000 303.612
37.17000 308.987
37.34000 287.920
37.51000 302.546
37.68000 294.559
37.85000 304.816
38.02000 288.957
38.19000 311.206
38.36000 352.805
38.53000 497.990
38.70000 1002.162
38.87000 856.877
39.04000 407.081
39.21000 303.199
39.38000 299.257
39.55000 276.186
39.72000 263.001
39.89000 274.691
40.06000 260.118
40.23000 267.818
40.40000 252.796
40.57000 257.749
40.74000 273.449
40.91000 246.980
41.08000 243.878
41.25000 256.445
41.42000 245.279
41.59000 247.663
41.76000 231.605
41.93000 246.952
42.10000 223.197
42.27000 237.630
42.44000 231.809
42.61000 222.545
42.78000 237.218
42.95000 226.289
43.12000 233.059
43.29000 216.605
43.46000 232.710
43.63000 229.540
43.80000 206.756
43.97000 227.671
44.14000 211.973
44.31000 225.057
44.48000 230.682
44.65000 243.611
44.82000 275.085
44.99000 318.657
45.16000 351.086
45.33000 332.413
45.50000 294.917
45.67000 246.960
45.84000 240.232
46.01000 216.879
46.18000 197.757
46.35000 210.070
46.52000 203.418
46.69000 189.491
46.86000 205.316
47.03000 204.262
47.20000 192.093
47.37000 192.098
47.54000 175.330
47.71000 176.919
47.88000 183.847
48.05000 196.495
48.22000 175.219
48.39000 186.573
48.56000 185.757
48.73000 193.853
48.90000 174.500
49.07000 171.492
49.24000 186.690
49.41000 181.691
49.58000 181.597
49.75000 172.373
49.92000 174.527
50.09000 179.096
50.26000 178.740
50.43000 200.158
50.60000 230.035
50.77000 236.558
50.94000 218.364
51.11000 193.753
51.28000 163.006
51.45000 175.951
51.62000 169.311
51.79000 172.876
51.96000 157.459
52.13000 173.962
52.30000 160.713
52.47000 163.934
52.64000 158.468
52.81000 155.178
52.98000 161.766
53.15000 152.979
53.32000 165.729
53.49000 163.362
53.66000 147.713
53.83000 149.732
54.00000 150.378
54.17000 152.034
54.34000 160.279
54.51000 163.272
54.68000 150.906
54.85000 157.245
55.02000 149.365
55.19000 152.451
55.36000 176.422
55.53000 195.381
55.70000 261.911
55.87000 429.596
56.04000 516.992
56.21000 383.622
56.38000 242.149
56.55000 183.429
56.72000 152.738
56.89000 148.255
57.06000 145.097
57.23000 139.561
57.40000 144.481
57.57000 143.147
57.74000 139.005
57.91000 135.481
58.08000 138.546
58.25000 139.196
58.42000 134.094
58.59000 133.638
58.76000 134.694
58.93000 134.823
59.10000 129.717
59.27000 141.969
59.44000 136.957
59.61000 141.151
59.78000 132.239
59.95000 131.314
60.12000 137.654
60.29000 130.594
60.46000 126.216
60.63000 121.250
60.80000 125.910
60.97000 134.087
61.14000 143.835
61.31000 137.981
61.48000 143.782
61.65000 285.734
61.82000 201.410
61.99000 135.642
62.16000 133.158
62.33000 146.515
62.50000 138.842
62.67000 141.227
62.84000 139.875
63.01000 140.507
63.18000 148.717
63.35000 139.290
63.52000 141.982
63.69000 151.388
63.86000 162.190
64.03000 154.555
64.20000 160.719
64.37000 167.272
64.54000 167.318
64.71000 187.619
64.88000 188.934
65.05000 197.976
65.22000 226.806
65.39000 295.085
65.56000 379.961
65.73000 677.121
65.90000 1136.465
66.07000 387.794
66.24000 318.040
66.41000 465.400
66.58000 352.071
66.75000 307.092
66.92000 335.305
67.09000 358.140
67.26000 386.058
67.43000 394.560
67.60000 443.345
67.77000 492.752
67.94000 511.071
68.11000 555.337
68.28000 622.618
68.45000 725.207
68.62000 1057.406
68.79000 1953.555
68.96000 13594.510
69.13000 60988.684
69.30000 35562.238
69.47000 8403.417
69.64000 1303.903
69.81000 841.587
69.98000 693.558
70.00000 651.997

File: BTO_Mapping_Theta2Theta_22-09-2025_001_04_30-000_0-000.xy
20.00000 583.733
20.17000 549.997
20.34000 557.440
20.51000 572.041
20.68000 546.929
20.85000 553.916
21.02000 559.210
21.19000 545.714
21.36000 589.690
21.53000 549.317
21.70000 565.860
21.87000 584.712
22.04000 650.908
22.21000 656.406
22.38000 583.761
22.55000 561.284
22.72000 544.533
22.89000 523.881
23.06000 539.720
23.23000 507.741
23.40000 511.824
23.57000 516.538
23.74000 511.696
23.91000 527.041
24.08000 534.956
24.25000 530.505
24.42000 500.515
24.59000 518.011
24.76000 481.103
24.93000 471.681
25.10000 483.688
25.27000 487.583
25.44000 463.684
25.61000 444.216
25.78000 462.414
25.95000 467.605
26.12000 462.407
26.29000 456.586
26.46000 454.312
26.63000 442.333
26.80000 448.588
26.97000 431.537
27.14000 441.164
27.31000 429.803
27.48000 454.695
27.65000 443.147
27.82000 418.917
27.99000 425.076
28.16000 440.161
28.33000 417.327
28.50000 423.002
28.67000 409.448
28.84000 409.983
29.01000 422.220
29.18000 408.381
29.35000 414.754
29.52000 410.761
29.69000 395.969
29.86000 420.406
30.03000 445.663
30.20000 432.291
30.37000 423.405
30.54000 424.250
30.71000 450.637
30.88000 465.921
31.05000 570.737
31.22000 1156.821
31.39000 2309.625
31.56000 1639.286
31.73000 752.139
31.90000 485.835
32.07000 436.727
32.24000 401.928
32.41000 370.908
32.58000 385.018
32.75000 376.455
32.92000 381.761
33.09000 360.917
33.26000 346.310
33.43000 361.082
33.60000 353.418
33.77000 343.369
33.94000 325.995
34.11000 339.897
34.28000 330.079
34.45000 324.919
34.62000 329.100
34.79000 328.977
34.96000 308.947
35.13000 318.903
35.30000 315.437
35.47000 300.206
35.64000 306.543
35.81000 307.843
35.98000 305.492
36.15000 292.016
36.32000 293.245
36.49000 304.173
36.66000 302.894
36.83000 303.117
37.00000 300.719
37.17000 293.535
37.34000 293.250
37.51000 278.179
37.68000 282.666
37.85000 269.561
38.02000 294.402
38.19000 312.887
38.36000 330.155
38.53000 474.996
38.70000 1004.118
38.87000 892.595
39.04000 412.909
39.21000 311.848
39.38000 295.049
39.55000 281.944
39.72000 259.978
39.89000 267.576
40.06000 265.440
40.23000 261.306
40.40000 254.209
40.57000 251.063
40.74000 249.118
40.91000 234.289
41.08000 265.687
41.25000 244.126
41.42000 233.325
41.59000 250.446
41.76000 234.704
41.93000 237.013
42.10000 225.920
42.27000 231.091
42.44000 249.776
42.61000 236.142
42.78000 239.660
42.95000 230.722
43.12000 217.652
43.29000 218.522
43.46000 232.531
43.63000 216.217
43.80000 224.890
43.97000 213.237
44.14000 228.681
44.31000 224.142
44.48000 226.804
44.65000 242.480
44.82000 245.774
44.99000 278.866
45.16000 313.573
45.33000 293.028
45.50000 279.272
45.67000 246.115
45.84000 242.675
46.01000 213.465
46.18000 210.449
46.35000 213.613
46.52000 204.346
46.69000 181.320
46.86000 198.354
47.03000 195.802
47.20000 194.618
47.37000 204.499
47.54000 184.750
47.71000 202.068
47.88000 184.760
48.05000 170.970
48.22000 186.260
48.39000 175.474
48.56000 184.635
48.73000 183.206
48.90000 184.311
49.07000 176.527
49.24000 169.211
49.41000 176.101
49.58000 177.810
49.75000 178.847
49.92000 179.472
50.09000 166.044
50.26000 171.928
50.43000 175.607
50.60000 214.188
50.77000 238.973
50.94000 219.789
51.11000 187.843
51.28000 169.868
51.45000 169.723
51.62000 162.576
51.79000 161.888
51.96000 160.752
52.13000 167.124
52.30000 151.938
52.47000 151.436
52.64000 161.328
52.81000 157.151
52.98000 155.605
53.15000 164.159
53.32000 161.025
53.49000 160.832
53.66000 149.830
53.83000 167.374
54.00000 144.817
54.17000 145.214
54.34000 158.763
54.51000 156.419
54.68000 148.145
54.85000 154.255
55.02000 163.459
55.19000 175.594
55.36000 159.406
55.53000 193.065
55.70000 237.067
55.87000 418.336
56.04000 574.620
56.21000 440.188
56.38000 258.917
56.55000 188.812
56.72000 171.475
56.89000 143.500
57.06000 159.183
57.23000 133.183
57.40000 154.234
57.57000 142.252
57.74000 145.804
57.91000 141.238
58.08000 147.788
58.25000 130.600
58.42000 135.915
58.59000 135.419
58.76000 133.287
58.93000 131.213
59.10000 134.829
59.27000 131.920
59.44000 138.880
59.61000 131.575
59.78000 134.226
59.95000 133.692
60.12000 132.783
60.29000 129.826
60.46000 147.280
60.63000 131.244
60.80000 131.029
60.97000 131.838
61.14000 142.829
61.31000 139.030
61.48000 152.527
61.65000 267.335
61.82000 197.807
61.99000 146.182
62.16000 142.801
62.33000 141.968
62.50000 145.611
62.67000 140.013
62.84000 155.903
63.01000 150.474
63.18000 145.304
63.35000 138.918
63.52000 146.862
63.69000 148.196
63.86000 149.587
64.03000 161.848
64.20000 153.684
64.37000 170.704
64.54000 172.210
64.71000 171.707
64.88000 178.395
65.05000 187.520
65.22000 202.495
65.39000 247.855
65.56000 340.901
65.73000 632.264
65.90000 1059.223
66.07000 387.950
66.24000 321.259
66.41000 436.642
66.58000 338.282
66.75000 313.499
66.92000 333.981
67.09000 348.525
67.26000 382.456
67.43000 400.505
67.60000 446.833
67.77000 457.030
67.94000 496.152
68.11000 553.768
68.28000 609.303
68.45000 720.114
68.62000 1013.800
68.79000 1817.131
68.96000 11607.984
69.13000 56461.234
69.30000 33491.082
69.47000 8263.432
69.64000 1231.073
69.81000 827.903
69.98000 640.635
70.00000 640.572

File: BTO_Mapping_Theta2Theta_22-09-2025_001_07_9-010_4-339.xy
20.00000 568.525
20.17000 558.576
20.34000 540.694
20.51000 552.163
20.68000 565.704
20.85000 562.712
21.02000 572.297
21.19000 544.618
21.36000 562.503
21.53000 564.945
21.70000 596.108
21.87000 634.355
22.04000 776.557
22.21000 735.286
22.38000 615.656
22.55000 571.750
22.72000 523.163
22.89000 550.568
23.06000 516.554
23.23000 515.592
23.40000 514.256
23.57000 490.558
23.74000 519.205
23.91000 510.135
24.08000 522.097
24.25000 499.524
24.42000 489.914
24.59000 495.534
24.76000 491.545
24.93000 474.496
25.10000 486.784
25.27000 478.864
25.44000 477.704
25.61000 469.713
25.78000 458.598
25.95000 473.006
26.12000 476.234
26.29000 453.373
26.46000 437.787
26.63000 461.886
26.80000 447.728
26.97000 442.878
27.14000 437.396
27.31000 431.612
27.48000 436.314
27.65000 442.023
27.82000 424.624
27.99000 430.322
28.16000 429.717
28.33000 415.311
28.50000 421.838
28.67000 424.467
28.84000 426.257
29.01000 420.398
29.18000 425.256
29.35000 430.912
29.52000 415.733
29.69000 419.703
29.86000 444.529
30.03000 464.793
30.20000 455.743
30.37000 425.800
30.54000 437.753
30.71000 452.471
30.88000 525.348
31.05000 726.439
31.22000 1808.792
31.39000 3377.142
31.56000 2056.728
31.73000 816.455
31.90000 522.295
32.07000 451.396
32.24000 415.730
32.41000 393.747
32.58000 390.894
32.75000 366.076
32.92000 412.814
33.09000 382.179
33.26000 365.304
33.43000 353.900
33.60000 341.624
33.77000 349.852
33.94000 352.451
34.11000 346.789
34.28000 325.712
34.45000 344.445
34.62000 325.320
34.79000 320.765
34.96000 312.411
35.13000 314.816
35.30000 309.894
35.47000 302.042
35.64000 323.652
35.81000 312.797
35.98000 312.234
36.15000 300.231
36.32000 288.622
36.49000 297.321
36.66000 285.691
36.83000 298.150
37.00000 303.770
37.17000 291.353
37.34000 302.093
37.51000 299.259
37.68000 297.436
37.85000 283.558
38.02000 292.793
38.19000 305.985
38.36000 335.653
38.53000 582.062
38.70000 1017.158
38.87000 773.798
39.04000 397.911
39.21000 330.745
39.38000 292.760
39.55000 296.039
39.72000 272.365
39.89000 279.720
40.06000 253.634
40.23000 260.645
40.40000 256.029
40.57000 264.465
40.74000 245.946
40.91000 249.486
41.08000 238.758
41.25000 254.432
41.42000 243.114
41.59000 242.567
41.76000 245.792
41.93000 265.391
42.10000 239.518
42.27000 225.050
42.44000 247.624
42.61000 241.529
42.78000 236.114
42.95000 221.347
43.12000 228.030
43.29000 235.812
43.46000 242.274
43.63000 244.702
43.80000 214.614
43.97000 227.224
44.14000 217.217
44.31000 227.441
44.48000 242.232
44.65000 270.213
44.82000 286.455
44.99000 368.687
45.16000 401.867
45.33000 340.668
45.50000 304.684
45.67000 268.742
45.84000 224.619
46.01000 224.253
46.18000 208.134
46.35000 211.705
46.52000 212.818
46.69000 198.869
46.86000 190.852
47.03000 190.042
47.20000 202.790
47.37000 200.485
47.54000 186.249
47.71000 181.727
47.88000 188.888
48.05000 182.288
48.22000 182.030
48.39000 183.772
48.56000 189.134
48.73000 180.595
48.90000 184.216
49.07000 172.929
49.24000 172.719
49.41000 166.747
49.58000 175.874
49.75000 185.547
49.92000 183.133
50.09000 175.654
50.26000 169.653
50.43000 202.103
50.60000 229.041
50.77000 257.492
50.94000 241.951
51.11000 188.892
51.28000 184.933
51.45000 167.772
51.62000 171.936
51.79000 165.849
51.96000 167.131
52.13000 156.212
52.30000 156.690
52.47000 164.295
52.64000 169.552
52.81000 165.153
52.98000 166.542
53.15000 159.907
53.32000 171.127
53.49000 177.091
53.66000 148.382
53.83000 158.952
54.00000 162.589
54.17000 160.300
54.34000 164.810
54.51000 155.912
54.68000 156.879
54.85000 159.064
55.02000 173.656
55.19000 161.470
55.36000 176.972
55.53000 200.586
55.70000 266.644
55.87000 477.533
56.04000 512.877
56.21000 377.196
56.38000 241.492
56.55000 191.055
56.72000 168.606
56.89000 153.534
57.06000 146.494
57.23000 141.949
57.40000 149.059
57.57000 150.491
57.74000 161.382
57.91000 144.326
58.08000 141.452
58.25000 140.729
58.42000 136.529
58.59000 133.367
58.76000 129.814
58.93000 141.773
59.10000 138.977
59.27000 137.079
59.44000 135.551
59.61000 126.934
59.78000 139.408
59.95000 143.137
60.12000 133.536
60.29000 131.915
60.46000 129.855
60.63000 127.724
60.80000 138.042
60.97000 136.240
61.14000 134.362
61.31000 136.647
61.48000 141.441
61.65000 315.838
61.82000 214.185
61.99000 147.941
62.16000 145.030
62.33000 144.640
62.50000 144.336
62.67000 140.703
62.84000 149.227
63.01000 148.091
63.18000 148.691
63.35000 155.384
63.52000 148.363
63.69000 159.403
63.86000 159.596
64.03000 152.847
64.20000 162.673
64.37000 171.897
64.54000 164.560
64.71000 178.164
64.88000 187.764
65.05000 201.967
65.22000 241.973
65.39000 321.847
65.56000 412.773
65.73000 775.624
65.90000 1269.057
66.07000 415.480
66.24000 336.421
66.41000 494.659
66.58000 358.624
66.75000 330.434
66.92000 336.936
67.09000 353.807
67.26000 391.084
67.43000 434.298
67.60000 448.477
67.77000 500.856
67.94000 539.211
68.11000 592.062
68.28000 663.119
68.45000 770.430
68.62000 1140.862
68.79000 2199.565
68.96000 16408.381
69.13000 70166.469
69.30000 40872.105
69.47000 9561.519
69.64000 1397.590
69.81000 919.768
69.98000 756.751
70.00000 723.526