Folder: Master-Thesis/XRD/17-09-2025/XY Data (part 3)

File: BTO_Mapping_Theta2Theta_09-17-2025_001_20_15-000_0-000.xy
20.00000 548.785
20.17000 556.915
20.34000 556.888
20.51000 538.337
20.68000 549.263
20.85000 551.470
21.02000 551.977
21.19000 534.703
21.36000 573.886
21.53000 513.587
21.70000 526.820
21.87000 591.587
22.04000 660.014
22.21000 605.316
22.38000 552.423
22.55000 534.936
22.72000 517.505
22.89000 502.698
23.06000 518.984
23.23000 490.605
23.40000 476.329
23.57000 486.725
23.74000 484.133
23.91000 482.974
24.08000 491.448
24.25000 477.450
24.42000 490.896
24.59000 471.115
24.76000 465.357
24.93000 472.147
25.10000 462.396
25.27000 480.400
25.44000 477.166
25.61000 469.951
25.78000 468.526
25.95000 454.911
26.12000 461.165
26.29000 447.312
26.46000 444.127
26.63000 445.524
26.80000 451.376
26.97000 452.638
27.14000 433.530
27.31000 422.913
27.48000 440.793
27.65000 423.940
27.82000 431.367
27.99000 412.584
28.16000 428.208
28.33000 422.330
28.50000 396.022
28.67000 418.032
28.84000 403.393
29.01000 413.925
29.18000 400.538
29.35000 412.506
29.52000 402.331
29.69000 392.730
29.86000 417.081
30.03000 443.673
30.20000 429.032
30.37000 428.824
30.54000 424.688
30.71000 440.733
30.88000 461.600
31.05000 603.470
31.22000 1556.731
31.39000 3287.786
31.56000 1766.974
31.73000 592.601
31.90000 430.964
32.07000 407.411
32.24000 376.084
32.41000 379.952
32.58000 372.564
32.75000 342.942
32.92000 342.582
33.09000 346.262
33.26000 334.368
33.43000 332.469
33.60000 344.434
33.77000 330.413
33.94000 347.401
34.11000 337.877
34.28000 333.570
34.45000 336.445
34.62000 330.595
34.79000 305.539
34.96000 325.566
35.13000 317.338
35.30000 303.913
35.47000 303.760
35.64000 302.163
35.81000 300.707
35.98000 308.358
36.15000 298.698
36.32000 287.318
36.49000 297.305
36.66000 292.645
36.83000 289.762
37.00000 300.674
37.17000 297.080
37.34000 295.003
37.51000 308.173
37.68000 292.890
37.85000 293.826
38.02000 287.815
38.19000 294.361
38.36000 336.562
38.53000 526.326
38.70000 1017.341
38.87000 774.833
39.04000 352.173
39.21000 275.412
39.38000 276.186
39.55000 263.685
39.72000 275.888
39.89000 256.783
40.06000 256.033
40.23000 272.254
40.40000 257.398
40.57000 253.449
40.74000 249.889
40.91000 254.642
41.08000 235.609
41.25000 243.709
41.42000 251.594
41.59000 230.273
41.76000 231.730
41.93000 242.508
42.10000 223.946
42.27000 236.518
42.44000 222.995
42.61000 219.531
42.78000 220.887
42.95000 220.840
43.12000 221.767
43.29000 231.799
43.46000 223.929
43.63000 228.773
43.80000 210.670
43.97000 215.341
44.14000 213.141
44.31000 216.870
44.48000 216.961
44.65000 243.866
44.82000 236.293
44.99000 279.546
45.16000 325.383
45.33000 270.856
45.50000 233.481
45.67000 218.511
45.84000 205.344
46.01000 195.472
46.18000 201.135
46.35000 215.082
46.52000 200.717
46.69000 209.511
46.86000 194.570
47.03000 191.042
47.20000 178.563
47.37000 174.285
47.54000 194.567
47.71000 183.783
47.88000 183.335
48.05000 183.147
48.22000 171.685
48.39000 175.554
48.56000 185.224
48.73000 181.885
48.90000 179.364
49.07000 178.452
49.24000 175.233
49.41000 176.949
49.58000 169.322
49.75000 170.208
49.92000 165.131
50.09000 171.840
50.26000 174.300
50.43000 188.458
50.60000 243.548
50.77000 254.261
50.94000 214.334
51.11000 175.066
51.28000 169.010
51.45000 171.798
51.62000 170.020
51.79000 164.601
51.96000 171.623
52.13000 168.184
52.30000 144.198
52.47000 164.158
52.64000 163.209
52.81000 158.193
52.98000 147.196
53.15000 159.695
53.32000 169.070
53.49000 157.109
53.66000 145.946
53.83000 157.959
54.00000 157.225
54.17000 143.610
54.34000 157.654
54.51000 142.468
54.68000 148.110
54.85000 160.098
55.02000 153.950
55.19000 171.903
55.36000 156.320
55.53000 194.302
55.70000 291.547
55.87000 541.197
56.04000 591.305
56.21000 356.507
56.38000 204.910
56.55000 159.292
56.72000 152.355
56.89000 150.102
57.06000 137.049
57.23000 147.340
57.40000 150.725
57.57000 142.163
57.74000 142.336
57.91000 140.707
58.08000 137.727
58.25000 125.692
58.42000 149.816
58.59000 135.164
58.76000 134.765
58.93000 130.606
59.10000 129.239
59.27000 123.826
59.44000 130.037
59.61000 120.910
59.78000 129.965
59.95000 132.190
60.12000 140.637
60.29000 135.354
60.46000 123.677
60.63000 123.383
60.80000 131.900
60.97000 136.487
61.14000 144.702
61.31000 136.533
61.48000 144.096
61.65000 236.333
61.82000 173.714
61.99000 137.982
62.16000 139.953
62.33000 136.182
62.50000 143.272
62.67000 134.336
62.84000 136.547
63.01000 144.617
63.18000 144.609
63.35000 149.291
63.52000 149.235
63.69000 156.941
63.86000 145.518
64.03000 164.937
64.20000 154.381
64.37000 156.997
64.54000 169.202
64.71000 163.464
64.88000 167.066
65.05000 190.801
65.22000 211.706
65.39000 285.966
65.56000 375.196
65.73000 620.990
65.90000 923.834
66.07000 335.427
66.24000 287.710
66.41000 385.251
66.58000 294.125
66.75000 302.261
66.92000 295.953
67.09000 324.981
67.26000 351.027
67.43000 379.765
67.60000 392.054
67.77000 437.303
67.94000 468.423
68.11000 511.322
68.28000 593.244
68.45000 679.706
68.62000 909.967
68.79000 1636.355
68.96000 10859.351
69.13000 49356.402
69.30000 28802.783
69.47000 6611.578
69.64000 1110.431
69.81000 745.842
69.98000 613.469
70.00000 621.280

File: BTO_Mapping_Theta2Theta_09-17-2025_001_21_30-000_0-000.xy
20.00000 546.103
20.17000 556.585
20.34000 559.921
20.51000 547.032
20.68000 552.628
20.85000 527.740
21.02000 557.865
21.19000 538.769
21.36000 579.476
21.53000 527.334
21.70000 547.582
21.87000 582.715
22.04000 644.340
22.21000 596.552
22.38000 539.927
22.55000 524.277
22.72000 517.598
22.89000 519.248
23.06000 494.690
23.23000 499.374
23.40000 503.373
23.57000 487.055
23.74000 527.181
23.91000 523.616
24.08000 518.493
24.25000 502.537
24.42000 487.006
24.59000 472.187
24.76000 467.476
24.93000 477.820
25.10000 451.511
25.27000 480.425
25.44000 451.837
25.61000 454.143
25.78000 448.914
25.95000 458.212
26.12000 466.116
26.29000 451.806
26.46000 466.555
26.63000 450.046
26.80000 439.355
26.97000 438.713
27.14000 429.631
27.31000 432.161
27.48000 430.429
27.65000 435.458
27.82000 440.838
27.99000 413.905
28.16000 414.775
28.33000 408.287
28.50000 414.449
28.67000 407.891
28.84000 421.526
29.01000 419.252
29.18000 399.465
29.35000 398.177
29.52000 396.523
29.69000 415.241
29.86000 403.132
30.03000 423.023
30.20000 404.829
30.37000 397.184
30.54000 397.085
30.71000 417.609
30.88000 447.949
31.05000 563.931
31.22000 1176.156
31.39000 2123.627
31.56000 1251.591
31.73000 531.484
31.90000 426.074
32.07000 410.740
32.24000 396.628
32.41000 389.545
32.58000 389.911
32.75000 346.847
32.92000 358.773
33.09000 338.769
33.26000 345.879
33.43000 326.986
33.60000 335.760
33.77000 335.598
33.94000 339.278
34.11000 338.789
34.28000 355.800
34.45000 351.497
34.62000 347.457
34.79000 330.004
34.96000 324.940
35.13000 313.026
35.30000 319.395
35.47000 300.693
35.64000 304.967
35.81000 312.266
35.98000 294.223
36.15000 294.559
36.32000 287.060
36.49000 306.042
36.66000 294.345
36.83000 297.916
37.00000 314.572
37.17000 301.625
37.34000 306.424
37.51000 288.754
37.68000 300.139
37.85000 289.508
38.02000 280.941
38.19000 294.352
38.36000 323.995
38.53000 534.591
38.70000 1102.039
38.87000 907.045
39.04000 383.915
39.21000 290.035
39.38000 284.152
39.55000 276.010
39.72000 269.297
39.89000 265.271
40.06000 253.173
40.23000 266.512
40.40000 251.216
40.57000 266.855
40.74000 244.340
40.91000 239.873
41.08000 251.236
41.25000 238.918
41.42000 242.186
41.59000 230.933
41.76000 251.780
41.93000 245.961
42.10000 233.973
42.27000 239.461
42.44000 226.383
42.61000 237.311
42.78000 238.628
42.95000 226.429
43.12000 228.530
43.29000 222.174
43.46000 227.332
43.63000 210.500
43.80000 222.196
43.97000 219.935
44.14000 215.963
44.31000 213.547
44.48000 219.573
44.65000 233.033
44.82000 243.918
44.99000 274.718
45.16000 300.709
45.33000 259.927
45.50000 237.210
45.67000 208.676
45.84000 211.689
46.01000 193.156
46.18000 188.176
46.35000 192.160
46.52000 199.768
46.69000 203.087
46.86000 209.806
47.03000 198.972
47.20000 192.366
47.37000 198.286
47.54000 192.499
47.71000 177.936
47.88000 181.208
48.05000 175.953
48.22000 176.719
48.39000 187.975
48.56000 179.557
48.73000 182.533
48.90000 188.905
49.07000 192.377
49.24000 177.601
49.41000 178.519
49.58000 163.124
49.75000 176.015
49.92000 179.282
50.09000 172.515
50.26000 170.933
50.43000 193.540
50.60000 225.522
50.77000 213.726
50.94000 199.751
51.11000 178.396
51.28000 165.879
51.45000 163.772
51.62000 159.433
51.79000 158.686
51.96000 155.413
52.13000 157.509
52.30000 156.925
52.47000 160.118
52.64000 168.448
52.81000 162.421
52.98000 156.365
53.15000 155.796
53.32000 155.427
53.49000 153.100
53.66000 159.175
53.83000 152.395
54.00000 143.555
54.17000 162.167
54.34000 147.005
54.51000 150.355
54.68000 158.440
54.85000 163.140
55.02000 166.784
55.19000 171.643
55.36000 173.892
55.53000 182.303
55.70000 286.365
55.87000 520.349
56.04000 555.842
56.21000 339.642
56.38000 209.496
56.55000 166.256
56.72000 151.016
56.89000 138.999
57.06000 145.341
57.23000 149.130
57.40000 142.606
57.57000 139.511
57.74000 137.948
57.91000 135.461
58.08000 129.587
58.25000 139.536
58.42000 133.426
58.59000 139.445
58.76000 131.082
58.93000 126.645
59.10000 135.223
59.27000 128.774
59.44000 130.462
59.61000 143.165
59.78000 137.065
59.95000 135.382
60.12000 140.290
60.29000 129.719
60.46000 136.749
60.63000 126.870
60.80000 141.080
60.97000 129.804
61.14000 128.760
61.31000 127.419
61.48000 139.794
61.65000 247.296
61.82000 197.334
61.99000 136.085
62.16000 134.262
62.33000 139.378
62.50000 141.987
62.67000 144.662
62.84000 146.107
63.01000 139.943
63.18000 146.267
63.35000 145.700
63.52000 143.363
63.69000 148.971
63.86000 146.192
64.03000 149.991
64.20000 160.667
64.37000 154.057
64.54000 162.663
64.71000 166.893
64.88000 181.044
65.05000 171.477
65.22000 204.944
65.39000 256.813
65.56000 318.533
65.73000 545.629
65.90000 862.346
66.07000 327.977
66.24000 295.639
66.41000 385.800
66.58000 318.791
66.75000 287.023
66.92000 311.198
67.09000 326.711
67.26000 363.631
67.43000 370.987
67.60000 416.004
67.77000 442.238
67.94000 482.136
68.11000 525.573
68.28000 580.234
68.45000 686.142
68.62000 919.175
68.79000 1617.142
68.96000 9826.429
69.13000 48913.680
69.30000 29111.420
69.47000 6962.372
69.64000 1118.961
69.81000 769.685
69.98000 648.882
70.00000 627.451

File: BTO_Mapping_Theta2Theta_09-17-2025_001_22_45-000_0-000.xy
20.00000 576.253
20.17000 568.045
20.34000 535.207
20.51000 555.614
20.68000 544.319
20.85000 542.938
21.02000 547.385
21.19000 524.281
21.36000 520.626
21.53000 541.130
21.70000 590.439
21.87000 574.964
22.04000 658.891
22.21000 623.879
22.38000 567.795
22.55000 525.625
22.72000 502.754
22.89000 507.590
23.06000 517.901
23.23000 492.706
23.40000 495.123
23.57000 515.065
23.74000 520.450
23.91000 537.510
24.08000 552.760
24.25000 496.370
24.42000 480.562
24.59000 465.243
24.76000 480.925
24.93000 485.945
25.10000 479.496
25.27000 466.292
25.44000 448.552
25.61000 471.592
25.78000 472.393
25.95000 473.408
26.12000 460.271
26.29000 437.912
26.46000 443.155
26.63000 443.620
26.80000 452.991
26.97000 443.387
27.14000 434.892
27.31000 429.252
27.48000 429.539
27.65000 421.237
27.82000 436.120
27.99000 397.896
28.16000 425.801
28.33000 415.807
28.50000 412.118
28.67000 420.628
28.84000 387.681
29.01000 405.223
29.18000 425.716
29.35000 411.605
29.52000 406.530
29.69000 393.726
29.86000 411.775
30.03000 417.134
30.20000 401.592
30.37000 409.833
30.54000 404.114
30.71000 437.246
30.88000 439.931
31.05000 526.922
31.22000 906.793
31.39000 1412.788
31.56000 1010.161
31.73000 555.966
31.90000 413.556
32.07000 409.747
32.24000 394.778
32.41000 373.669
32.58000 371.965
32.75000 365.323
32.92000 357.916
33.09000 338.606
33.26000 342.350
33.43000 333.302
33.60000 345.881
33.77000 324.463
33.94000 344.760
34.11000 353.022
34.28000 349.905
34.45000 355.854
34.62000 332.935
34.79000 320.188
34.96000 315.608
35.13000 313.878
35.30000 299.289
35.47000 307.696
35.64000 306.417
35.81000 318.364
35.98000 290.418
36.15000 293.367
36.32000 312.511
36.49000 305.770
36.66000 296.353
36.83000 293.034
37.00000 298.722
37.17000 297.716
37.34000 304.607
37.51000 283.476
37.68000 281.310
37.85000 263.168
38.02000 293.975
38.19000 289.961
38.36000 328.190
38.53000 481.963
38.70000 833.220
38.87000 628.971
39.04000 336.527
39.21000 300.159
39.38000 267.533
39.55000 269.392
39.72000 263.980
39.89000 250.443
40.06000 249.755
40.23000 251.695
40.40000 253.771
40.57000 253.782
40.74000 238.952
40.91000 238.891
41.08000 254.689
41.25000 240.246
41.42000 253.807
41.59000 239.100
41.76000 239.292
41.93000 236.634
42.10000 250.759
42.27000 242.529
42.44000 234.367
42.61000 239.770
42.78000 226.909
42.95000 218.523
43.12000 221.889
43.29000 225.948
43.46000 223.400
43.63000 220.014
43.80000 219.989
43.97000 224.176
44.14000 220.834
44.31000 226.575
44.48000 236.136
44.65000 239.119
44.82000 254.849
44.99000 276.347
45.16000 290.988
45.33000 264.149
45.50000 246.166
45.67000 238.550
45.84000 212.361
46.01000 200.267
46.18000 209.823
46.35000 210.522
46.52000 199.520
46.69000 202.424
46.86000 196.302
47.03000 191.582
47.20000 181.998
47.37000 181.778
47.54000 183.560
47.71000 194.812
47.88000 186.169
48.05000 190.351
48.22000 189.297
48.39000 180.782
48.56000 183.527
48.73000 175.720
48.90000 180.274
49.07000 182.829
49.24000 191.121
49.41000 170.968
49.58000 174.454
49.75000 172.256
49.92000 175.249
50.09000 171.929
50.26000 168.045
50.43000 163.458
50.60000 192.905
50.77000 200.504
50.94000 185.741
51.11000 178.822
51.28000 176.084
51.45000 167.016
51.62000 175.911
51.79000 168.235
51.96000 166.013
52.13000 162.863
52.30000 155.121
52.47000 166.142
52.64000 162.217
52.81000 160.149
52.98000 158.805
53.15000 148.610
53.32000 159.414
53.49000 166.069
53.66000 153.904
53.83000 157.590
54.00000 152.675
54.17000 152.967
54.34000 160.179
54.51000 152.921
54.68000 154.239
54.85000 152.674
55.02000 158.404
55.19000 157.410
55.36000 175.731
55.53000 203.280
55.70000 278.168
55.87000 452.349
56.04000 468.006
56.21000 311.632
56.38000 202.143
56.55000 165.404
56.72000 160.488
56.89000 155.766
57.06000 152.086
57.23000 148.747
57.40000 145.021
57.57000 153.064
57.74000 148.271
57.91000 142.188
58.08000 134.945
58.25000 147.865
58.42000 135.669
58.59000 141.174
58.76000 145.697
58.93000 137.365
59.10000 142.839
59.27000 126.665
59.44000 128.696
59.61000 130.867
59.78000 132.194
59.95000 137.069
60.12000 127.545
60.29000 127.108
60.46000 130.255
60.63000 128.479
60.80000 118.893
60.97000 138.867
61.14000 134.438
61.31000 130.796
61.48000 147.192
61.65000 256.442
61.82000 190.655
61.99000 143.705
62.16000 142.032
62.33000 136.380
62.50000 141.979
62.67000 143.803
62.84000 138.693
63.01000 137.992
63.18000 145.270
63.35000 147.152
63.52000 152.300
63.69000 151.905
63.86000 147.036
64.03000 151.868
64.20000 155.644
64.37000 156.274
64.54000 166.542
64.71000 173.065
64.88000 164.194
65.05000 182.481
65.22000 203.724
65.39000 221.171
65.56000 279.983
65.73000 513.755
65.90000 924.769
66.07000 359.587
66.24000 291.821
66.41000 392.410
66.58000 327.406
66.75000 307.420
66.92000 328.822
67.09000 333.391
67.26000 370.414
67.43000 381.654
67.60000 419.275
67.77000 453.790
67.94000 483.456
68.11000 531.163
68.28000 626.754
68.45000 726.359
68.62000 950.597
68.79000 1728.923
68.96000 9545.286
69.13000 51722.895
69.30000 31536.289
69.47000 8084.520
69.64000 1188.737
69.81000 809.579
69.98000 669.459
70.00000 661.459

File: BTO_Mapping_Theta2Theta_09-17-2025_001_23_-45-000_15-000.xy
20.00000 555.731
20.17000 560.426
20.34000 532.516
20.51000 545.881
20.68000 537.033
20.85000 537.659
21.02000 529.498
21.19000 536.813
21.36000 547.915
21.53000 523.671
21.70000 540.065
21.87000 527.793
22.04000 525.478
22.21000 523.980
22.38000 507.201
22.55000 496.401
22.72000 517.452
22.89000 478.231
23.06000 510.396
23.23000 496.324
23.40000 490.255
23.57000 488.789
23.74000 476.715
23.91000 477.037
24.08000 463.799
24.25000 480.337
24.42000 461.214
24.59000 456.737
24.76000 445.695
24.93000 453.972
25.10000 459.527
25.27000 454.988
25.44000 458.719
25.61000 457.048
25.78000 444.047
25.95000 448.776
26.12000 447.631
26.29000 435.198
26.46000 425.670
26.63000 442.102
26.80000 424.047
26.97000 428.012
27.14000 415.818
27.31000 426.559
27.48000 415.820
27.65000 409.508
27.82000 416.008
27.99000 414.911
28.16000 394.737
28.33000 421.056
28.50000 408.355
28.67000 394.482
28.84000 387.609
29.01000 388.010
29.18000 382.394
29.35000 384.990
29.52000 375.313
29.69000 370.822
29.86000 379.891
30.03000 370.135
30.20000 368.118
30.37000 366.413
30.54000 368.713
30.71000 370.829
30.88000 349.183
31.05000 357.011
31.22000 345.208
31.39000 345.972
31.56000 357.642
31.73000 353.044
31.90000 343.440
32.07000 340.797
32.24000 345.945
32.41000 338.049
32.58000 354.082
32.75000 347.467
32.92000 336.563
33.09000 324.155
33.26000 323.268
33.43000 330.110
33.60000 340.350
33.77000 334.053
33.94000 322.837
34.11000 322.208
34.28000 322.454
34.45000 337.251
34.62000 324.147
34.79000 309.637
34.96000 300.005
35.13000 299.672
35.30000 299.525
35.47000 299.162
35.64000 304.366
35.81000 296.087
35.98000 296.191
36.15000 293.766
36.32000 281.450
36.49000 292.824
36.66000 286.822
36.83000 289.571
37.00000 285.005
37.17000 276.034
37.34000 274.934
37.51000 277.260
37.68000 275.168
37.85000 276.302
38.02000 264.300
38.19000 270.880
38.36000 250.554
38.53000 261.805
38.70000 240.463
38.87000 242.359
39.04000 248.756
39.21000 258.023
39.38000 262.978
39.55000 251.082
39.72000 239.579
39.89000 249.382
40.06000 256.068
40.23000 240.751
40.40000 256.633
40.57000 244.100
40.74000 232.400
40.91000 236.146
41.08000 237.521
41.25000 232.817
41.42000 244.748
41.59000 224.958
41.76000 225.662
41.93000 240.619
42.10000 227.431
42.27000 225.384
42.44000 222.890
42.61000 224.870
42.78000 232.407
42.95000 211.105
43.12000 218.858
43.29000 219.136
43.46000 211.215
43.63000 215.361
43.80000 216.387
43.97000 205.989
44.14000 211.355
44.31000 197.689
44.48000 207.112
44.65000 195.967
44.82000 199.354
44.99000 194.401
45.16000 191.028
45.33000 198.216
45.50000 181.391
45.67000 196.337
45.84000 182.741
46.01000 194.036
46.18000 194.082
46.35000 195.040
46.52000 187.358
46.69000 193.615
46.86000 176.618
47.03000 175.819
47.20000 176.671
47.37000 184.309
47.54000 183.254
47.71000 175.095
47.88000 193.839
48.05000 185.476
48.22000 188.407
48.39000 178.456
48.56000 181.082
48.73000 179.210
48.90000 167.988
49.07000 161.591
49.24000 167.854
49.41000 176.530
49.58000 160.566
49.75000 159.338
49.92000 167.670
50.09000 180.707
50.26000 165.311
50.43000 176.245
50.60000 160.418
50.77000 160.440
50.94000 159.674
51.11000 170.679
51.28000 156.482
51.45000 158.492
51.62000 172.717
51.79000 146.558
51.96000 148.901
52.13000 151.511
52.30000 148.076
52.47000 147.801
52.64000 155.419
52.81000 161.503
52.98000 151.500
53.15000 145.743
53.32000 149.284
53.49000 138.043
53.66000 148.586
53.83000 146.713
54.00000 154.914
54.17000 135.445
54.34000 145.549
54.51000 138.645
54.68000 144.983
54.85000 143.472
55.02000 150.885
55.19000 134.959
55.36000 144.451
55.53000 136.123
55.70000 148.436
55.87000 148.824
56.04000 141.944
56.21000 136.452
56.38000 139.522
56.55000 144.335
56.72000 136.734
56.89000 148.304
57.06000 139.645
57.23000 128.055
57.40000 143.695
57.57000 141.856
57.74000 140.601
57.91000 139.743
58.08000 126.456
58.25000 136.468
58.42000 129.504
58.59000 136.092
58.76000 138.173
58.93000 131.105
59.10000 130.164
59.27000 133.309
59.44000 141.329
59.61000 123.217
59.78000 132.121
59.95000 132.490
60.12000 145.146
60.29000 131.384
60.46000 129.935
60.63000 125.589
60.80000 129.938
60.97000 137.605
61.14000 138.679
61.31000 133.521
61.48000 144.035
61.65000 240.368
61.82000 177.594
61.99000 150.055
62.16000 138.191
62.33000 141.031
62.50000 139.960
62.67000 140.860
62.84000 145.914
63.01000 140.007
63.18000 152.508
63.35000 155.698
63.52000 149.648
63.69000 146.700
63.86000 167.070
64.03000 152.075
64.20000 146.212
64.37000 173.020
64.54000 180.295
64.71000 180.216
64.88000 183.538
65.05000 172.940
65.22000 190.291
65.39000 204.219
65.56000 233.915
65.73000 485.602
65.90000 911.154
66.07000 348.115
66.24000 295.680
66.41000 442.159
66.58000 337.593
66.75000 335.757
66.92000 331.118
67.09000 363.848
67.26000 382.090
67.43000 418.457
67.60000 441.768
67.77000 490.511
67.94000 526.078
68.11000 593.164
68.28000 645.255
68.45000 766.838
68.62000 1053.028
68.79000 1842.928
68.96000 11456.659
69.13000 55569.656
69.30000 33074.188
69.47000 8195.187
69.64000 1253.059
69.81000 852.851
69.98000 694.839
70.00000 665.219

File: BTO_Mapping_Theta2Theta_09-17-2025_001_24_-30-000_15-000.xy
20.00000 532.743
20.17000 553.813
20.34000 562.056
20.51000 553.618
20.68000 554.322
20.85000 555.882
21.02000 530.727
21.19000 550.254
21.36000 556.049
21.53000 553.765
21.70000 628.608
21.87000 812.826
22.04000 982.609
22.21000 657.114
22.38000 569.344
22.55000 542.766
22.72000 523.879
22.89000 519.980
23.06000 531.080
23.23000 498.085
23.40000 513.835
23.57000 498.995
23.74000 488.377
23.91000 489.489
24.08000 496.617
24.25000 494.071
24.42000 507.520
24.59000 471.301
24.76000 484.013
24.93000 496.618
25.10000 474.103
25.27000 472.882
25.44000 483.400
25.61000 462.472
25.78000 471.297
25.95000 493.522
26.12000 457.624
26.29000 453.364
26.46000 446.804
26.63000 442.804
26.80000 448.300
26.97000 456.432
27.14000 446.229
27.31000 442.822
27.48000 442.763
27.65000 466.526
27.82000 421.840
27.99000 442.524
28.16000 443.171
28.33000 438.251
28.50000 438.331
28.67000 432.393
28.84000 440.768
29.01000 428.183
29.18000 422.074
29.35000 419.227
29.52000 441.903
29.69000 409.436
29.86000 453.424
30.03000 462.304
30.20000 451.406
30.37000 435.192
30.54000 441.054
30.71000 481.348
30.88000 524.328
31.05000 947.235
31.22000 3095.555
31.39000 3334.532
31.56000 1074.856
31.73000 532.746
31.90000 445.681
32.07000 419.935
32.24000 406.241
32.41000 382.964
32.58000 386.396
32.75000 354.344
32.92000 381.807
33.09000 363.516
33.26000 342.105
33.43000 347.722
33.60000 344.140
33.77000 353.584
33.94000 338.478
34.11000 327.440
34.28000 342.857
34.45000 339.941
34.62000 345.707
34.79000 313.917
34.96000 314.394
35.13000 315.703
35.30000 315.756
35.47000 317.100
35.64000 324.657
35.81000 309.320
35.98000 303.323
36.15000 310.055
36.32000 281.887
36.49000 297.285
36.66000 311.079
36.83000 301.162
37.00000 305.158
37.17000 288.422
37.34000 294.379
37.51000 295.788
37.68000 291.500
37.85000 286.618
38.02000 306.231
38.19000 305.396
38.36000 355.595
38.53000 477.297
38.70000 469.651
38.87000 368.636
39.04000 300.516
39.21000 281.649
39.38000 279.609
39.55000 273.777
39.72000 281.554
39.89000 281.269
40.06000 259.940
40.23000 260.134
40.40000 253.736
40.57000 260.008
40.74000 248.165
40.91000 239.239
41.08000 260.157
41.25000 251.180
41.42000 236.076
41.59000 249.125
41.76000 233.955
41.93000 228.593
42.10000 236.103
42.27000 227.445
42.44000 242.064
42.61000 224.260
42.78000 227.778
42.95000 223.193
43.12000 234.727
43.29000 237.020
43.46000 243.728
43.63000 224.763
43.80000 225.077
43.97000 225.722
44.14000 235.051
44.31000 227.767
44.48000 255.312
44.65000 322.740
44.82000 542.854
44.99000 644.366
45.16000 451.026
45.33000 297.173
45.50000 246.337
45.67000 220.748
45.84000 218.450
46.01000 209.701
46.18000 202.612
46.35000 207.534
46.52000 201.498
46.69000 208.030
46.86000 200.060
47.03000 188.591
47.20000 178.198
47.37000 188.183
47.54000 184.002
47.71000 186.982
47.88000 180.519
48.05000 188.784
48.22000 177.307
48.39000 179.435
48.56000 183.644
48.73000 195.073
48.90000 183.934
49.07000 186.155
49.24000 174.705
49.41000 175.216
49.58000 189.710
49.75000 179.331
49.92000 163.530
50.09000 187.049
50.26000 201.647
50.43000 229.426
50.60000 292.112
50.77000 258.779
50.94000 202.036
51.11000 183.064
51.28000 177.605
51.45000 164.400
51.62000 173.148
51.79000 172.715
51.96000 176.986
52.13000 168.646
52.30000 165.028
52.47000 161.777
52.64000 152.026
52.81000 158.523
52.98000 165.315
53.15000 157.901
53.32000 166.258
53.49000 166.188
53.66000 139.012
53.83000 159.162
54.00000 156.698
54.17000 156.140
54.34000 159.599
54.51000 151.257
54.68000 156.576
54.85000 149.945
55.02000 163.952
55.19000 178.167
55.36000 170.300
55.53000 303.004
55.70000 531.258
55.87000 589.199
56.04000 358.497
56.21000 228.161
56.38000 172.733
56.55000 157.357
56.72000 146.316
56.89000 150.667
57.06000 140.907
57.23000 159.961
57.40000 153.205
57.57000 135.631
57.74000 147.401
57.91000 137.028
58.08000 146.362
58.25000 141.965
58.42000 138.424
58.59000 155.944
58.76000 136.325
58.93000 129.014
59.10000 134.966
59.27000 133.091
59.44000 133.800
59.61000 142.507
59.78000 133.293
59.95000 129.208
60.12000 136.321
60.29000 132.505
60.46000 142.856
60.63000 129.908
60.80000 138.017
60.97000 136.449
61.14000 132.377
61.31000 135.350
61.48000 159.692
61.65000 335.276
61.82000 237.325
61.99000 155.574
62.16000 151.026
62.33000 149.717
62.50000 151.367
62.67000 142.272
62.84000 139.074
63.01000 145.017
63.18000 149.270
63.35000 157.281
63.52000 148.519
63.69000 161.756
63.86000 154.623
64.03000 157.199
64.20000 159.712
64.37000 166.802
64.54000 182.475
64.71000 187.864
64.88000 187.560
65.05000 234.089
65.22000 353.057
65.39000 436.449
65.56000 418.622
65.73000 817.808
65.90000 1402.313
66.07000 447.047
66.24000 341.832
66.41000 538.222
66.58000 384.849
66.75000 374.507
66.92000 368.126
67.09000 388.262
67.26000 426.037
67.43000 469.208
67.60000 495.153
67.77000 548.763
67.94000 610.824
68.11000 664.834
68.28000 725.695
68.45000 854.938
68.62000 1299.502
68.79000 2623.302
68.96000 22544.172
69.13000 90117.703
69.30000 53278.277
69.47000 12474.425
69.64000 1636.123
69.81000 1066.956
69.98000 807.797
70.00000 786.677