Folder: Master-Thesis/XRD/17-09-2025/XY Data (part 2)

File: BTO_Mapping_Theta2Theta_09-17-2025_001_11_-15-000_-15-000.xy
20.00000 539.649
20.17000 570.426
20.34000 549.515
20.51000 545.778
20.68000 542.895
20.85000 543.733
21.02000 552.754
21.19000 521.525
21.36000 549.128
21.53000 557.108
21.70000 583.722
21.87000 737.870
22.04000 891.806
22.21000 664.614
22.38000 554.441
22.55000 529.163
22.72000 540.490
22.89000 518.391
23.06000 494.086
23.23000 495.403
23.40000 513.883
23.57000 473.623
23.74000 496.095
23.91000 489.078
24.08000 483.687
24.25000 492.723
24.42000 503.483
24.59000 483.963
24.76000 463.109
24.93000 467.480
25.10000 483.036
25.27000 472.773
25.44000 470.572
25.61000 468.232
25.78000 456.359
25.95000 455.095
26.12000 441.694
26.29000 462.369
26.46000 473.595
26.63000 434.901
26.80000 459.307
26.97000 434.304
27.14000 449.458
27.31000 440.809
27.48000 440.309
27.65000 431.976
27.82000 460.668
27.99000 433.612
28.16000 434.128
28.33000 434.504
28.50000 440.775
28.67000 441.658
28.84000 424.292
29.01000 424.891
29.18000 421.741
29.35000 428.601
29.52000 419.019
29.69000 433.201
29.86000 428.755
30.03000 449.737
30.20000 441.354
30.37000 449.114
30.54000 445.385
30.71000 448.450
30.88000 504.917
31.05000 801.188
31.22000 2599.646
31.39000 3897.290
31.56000 1386.531
31.73000 552.977
31.90000 453.781
32.07000 431.888
32.24000 402.631
32.41000 387.622
32.58000 374.786
32.75000 375.158
32.92000 361.030
33.09000 355.810
33.26000 352.944
33.43000 358.751
33.60000 357.148
33.77000 343.480
33.94000 332.123
34.11000 331.968
34.28000 339.897
34.45000 314.067
34.62000 326.931
34.79000 321.749
34.96000 311.642
35.13000 311.483
35.30000 306.593
35.47000 322.395
35.64000 317.681
35.81000 332.990
35.98000 300.570
36.15000 312.617
36.32000 298.973
36.49000 296.366
36.66000 296.766
36.83000 287.721
37.00000 288.499
37.17000 303.153
37.34000 282.825
37.51000 283.240
37.68000 298.820
37.85000 290.594
38.02000 290.151
38.19000 298.284
38.36000 328.612
38.53000 504.944
38.70000 611.063
38.87000 429.254
39.04000 299.862
39.21000 274.996
39.38000 281.571
39.55000 266.793
39.72000 260.376
39.89000 262.521
40.06000 249.345
40.23000 251.467
40.40000 261.770
40.57000 241.810
40.74000 255.158
40.91000 241.495
41.08000 245.700
41.25000 232.807
41.42000 233.724
41.59000 251.130
41.76000 239.788
41.93000 250.779
42.10000 234.317
42.27000 228.036
42.44000 230.352
42.61000 244.312
42.78000 225.941
42.95000 233.226
43.12000 228.591
43.29000 233.608
43.46000 230.104
43.63000 229.121
43.80000 228.228
43.97000 230.519
44.14000 221.997
44.31000 230.290
44.48000 242.612
44.65000 261.172
44.82000 393.943
44.99000 545.298
45.16000 433.586
45.33000 298.807
45.50000 234.360
45.67000 217.145
45.84000 211.961
46.01000 221.107
46.18000 207.995
46.35000 199.177
46.52000 187.805
46.69000 190.593
46.86000 198.603
47.03000 189.617
47.20000 198.697
47.37000 191.015
47.54000 185.154
47.71000 186.304
47.88000 192.040
48.05000 183.308
48.22000 192.106
48.39000 180.689
48.56000 182.583
48.73000 186.744
48.90000 170.772
49.07000 180.226
49.24000 175.039
49.41000 177.713
49.58000 186.680
49.75000 184.334
49.92000 163.875
50.09000 181.562
50.26000 178.447
50.43000 237.272
50.60000 298.381
50.77000 277.716
50.94000 216.489
51.11000 178.768
51.28000 165.180
51.45000 166.700
51.62000 157.764
51.79000 175.395
51.96000 154.139
52.13000 159.610
52.30000 161.739
52.47000 156.223
52.64000 162.538
52.81000 164.108
52.98000 154.931
53.15000 164.941
53.32000 160.033
53.49000 161.871
53.66000 156.372
53.83000 150.892
54.00000 161.882
54.17000 164.418
54.34000 158.479
54.51000 149.206
54.68000 152.500
54.85000 153.979
55.02000 168.143
55.19000 166.047
55.36000 175.892
55.53000 247.362
55.70000 468.785
55.87000 675.247
56.04000 497.757
56.21000 257.821
56.38000 185.870
56.55000 155.112
56.72000 157.854
56.89000 164.311
57.06000 142.805
57.23000 146.110
57.40000 151.934
57.57000 141.265
57.74000 141.425
57.91000 152.436
58.08000 145.972
58.25000 143.627
58.42000 132.718
58.59000 144.636
58.76000 129.642
58.93000 138.514
59.10000 125.172
59.27000 144.456
59.44000 136.220
59.61000 138.419
59.78000 135.690
59.95000 129.124
60.12000 133.624
60.29000 135.783
60.46000 125.197
60.63000 130.097
60.80000 128.700
60.97000 138.274
61.14000 141.811
61.31000 135.461
61.48000 155.313
61.65000 322.670
61.82000 218.977
61.99000 153.245
62.16000 136.031
62.33000 146.443
62.50000 143.780
62.67000 148.478
62.84000 139.463
63.01000 146.487
63.18000 145.334
63.35000 154.747
63.52000 156.498
63.69000 147.791
63.86000 156.624
64.03000 159.511
64.20000 170.340
64.37000 162.221
64.54000 174.998
64.71000 176.688
64.88000 178.478
65.05000 210.809
65.22000 294.994
65.39000 408.056
65.56000 477.330
65.73000 849.515
65.90000 1397.492
66.07000 418.300
66.24000 351.548
66.41000 503.341
66.58000 377.209
66.75000 355.922
66.92000 380.257
67.09000 379.492
67.26000 423.325
67.43000 451.585
67.60000 492.673
67.77000 520.644
67.94000 576.059
68.11000 643.791
68.28000 731.635
68.45000 830.935
68.62000 1326.203
68.79000 2494.869
68.96000 23151.316
69.13000 85981.094
69.30000 49073.633
69.47000 10842.341
69.64000 1541.168
69.81000 988.025
69.98000 818.774
70.00000 800.437

File: BTO_Mapping_Theta2Theta_09-17-2025_001_14_30-000_-15-000.xy
20.00000 565.680
20.17000 551.011
20.34000 559.924
20.51000 546.788
20.68000 555.676
20.85000 537.714
21.02000 556.008
21.19000 554.110
21.36000 554.028
21.53000 529.632
21.70000 551.944
21.87000 574.639
22.04000 629.504
22.21000 595.825
22.38000 535.033
22.55000 528.522
22.72000 523.367
22.89000 501.935
23.06000 493.422
23.23000 520.102
23.40000 508.015
23.57000 489.504
23.74000 520.665
23.91000 515.307
24.08000 525.636
24.25000 496.289
24.42000 494.432
24.59000 451.786
24.76000 465.880
24.93000 473.065
25.10000 469.344
25.27000 464.755
25.44000 463.581
25.61000 474.655
25.78000 463.106
25.95000 450.319
26.12000 446.695
26.29000 447.975
26.46000 431.999
26.63000 436.160
26.80000 439.057
26.97000 410.713
27.14000 426.208
27.31000 437.665
27.48000 430.617
27.65000 413.932
27.82000 413.891
27.99000 432.043
28.16000 433.332
28.33000 427.073
28.50000 414.885
28.67000 410.059
28.84000 417.466
29.01000 404.497
29.18000 402.466
29.35000 402.389
29.52000 405.825
29.69000 399.710
29.86000 410.118
30.03000 432.264
30.20000 415.966
30.37000 392.467
30.54000 403.306
30.71000 407.550
30.88000 446.492
31.05000 523.380
31.22000 1211.939
31.39000 2179.542
31.56000 1271.089
31.73000 542.096
31.90000 433.235
32.07000 386.214
32.24000 397.074
32.41000 374.111
32.58000 356.453
32.75000 360.184
32.92000 348.580
33.09000 331.626
33.26000 352.420
33.43000 329.037
33.60000 355.622
33.77000 339.911
33.94000 329.764
34.11000 335.917
34.28000 356.083
34.45000 351.031
34.62000 345.228
34.79000 314.146
34.96000 313.673
35.13000 308.686
35.30000 307.339
35.47000 304.302
35.64000 297.334
35.81000 309.753
35.98000 303.487
36.15000 301.161
36.32000 305.265
36.49000 310.391
36.66000 290.937
36.83000 294.192
37.00000 292.661
37.17000 294.448
37.34000 294.591
37.51000 294.484
37.68000 306.468
37.85000 267.915
38.02000 286.236
38.19000 298.864
38.36000 341.891
38.53000 558.795
38.70000 1075.864
38.87000 891.102
39.04000 378.540
39.21000 296.428
39.38000 276.371
39.55000 265.120
39.72000 266.148
39.89000 263.851
40.06000 253.244
40.23000 259.940
40.40000 249.033
40.57000 260.672
40.74000 244.890
40.91000 248.062
41.08000 245.892
41.25000 249.945
41.42000 247.383
41.59000 247.654
41.76000 231.412
41.93000 243.792
42.10000 232.797
42.27000 234.529
42.44000 232.911
42.61000 232.594
42.78000 217.245
42.95000 226.195
43.12000 227.884
43.29000 225.428
43.46000 223.534
43.63000 241.599
43.80000 211.645
43.97000 215.320
44.14000 221.649
44.31000 212.571
44.48000 227.783
44.65000 216.449
44.82000 241.500
44.99000 286.961
45.16000 303.775
45.33000 260.538
45.50000 252.810
45.67000 211.512
45.84000 201.853
46.01000 194.277
46.18000 206.071
46.35000 201.775
46.52000 198.109
46.69000 197.434
46.86000 198.893
47.03000 177.919
47.20000 186.767
47.37000 185.207
47.54000 186.450
47.71000 196.531
47.88000 185.274
48.05000 186.248
48.22000 177.011
48.39000 185.326
48.56000 169.960
48.73000 182.047
48.90000 174.588
49.07000 185.837
49.24000 180.753
49.41000 167.039
49.58000 164.341
49.75000 166.663
49.92000 179.727
50.09000 175.480
50.26000 178.168
50.43000 189.757
50.60000 214.538
50.77000 215.973
50.94000 201.985
51.11000 170.927
51.28000 163.676
51.45000 165.076
51.62000 171.756
51.79000 155.832
51.96000 153.547
52.13000 156.391
52.30000 162.864
52.47000 157.205
52.64000 154.415
52.81000 165.650
52.98000 151.330
53.15000 160.378
53.32000 168.136
53.49000 157.439
53.66000 175.387
53.83000 143.970
54.00000 150.088
54.17000 148.374
54.34000 161.467
54.51000 158.625
54.68000 146.289
54.85000 152.715
55.02000 164.212
55.19000 155.648
55.36000 153.662
55.53000 185.640
55.70000 298.344
55.87000 515.479
56.04000 579.134
56.21000 371.448
56.38000 211.504
56.55000 164.471
56.72000 150.238
56.89000 145.422
57.06000 141.190
57.23000 147.934
57.40000 146.269
57.57000 147.696
57.74000 141.535
57.91000 140.449
58.08000 132.825
58.25000 129.171
58.42000 134.678
58.59000 133.918
58.76000 131.887
58.93000 134.238
59.10000 126.844
59.27000 129.242
59.44000 137.577
59.61000 124.520
59.78000 128.274
59.95000 137.400
60.12000 125.543
60.29000 130.645
60.46000 125.996
60.63000 131.539
60.80000 128.072
60.97000 135.605
61.14000 139.117
61.31000 134.929
61.48000 138.330
61.65000 245.481
61.82000 186.307
61.99000 134.190
62.16000 135.129
62.33000 136.042
62.50000 141.025
62.67000 140.307
62.84000 128.367
63.01000 140.514
63.18000 145.284
63.35000 137.198
63.52000 131.950
63.69000 138.790
63.86000 148.786
64.03000 159.194
64.20000 145.716
64.37000 167.304
64.54000 158.410
64.71000 166.883
64.88000 178.702
65.05000 185.125
65.22000 211.855
65.39000 276.367
65.56000 321.341
65.73000 550.103
65.90000 865.030
66.07000 349.278
66.24000 279.344
66.41000 389.189
66.58000 314.077
66.75000 295.274
66.92000 314.076
67.09000 320.673
67.26000 346.039
67.43000 378.391
67.60000 407.427
67.77000 441.436
67.94000 486.801
68.11000 532.459
68.28000 576.421
68.45000 701.364
68.62000 946.420
68.79000 1629.190
68.96000 10556.713
69.13000 48831.293
69.30000 28760.621
69.47000 6664.175
69.64000 1119.721
69.81000 779.894
69.98000 627.110
70.00000 639.510

File: BTO_Mapping_Theta2Theta_09-17-2025_001_17_-30-000_0-000.xy
20.00000 580.640
20.17000 543.096
20.34000 567.124
20.51000 552.077
20.68000 561.730
20.85000 560.320
21.02000 583.169
21.19000 546.291
21.36000 552.402
21.53000 594.334
21.70000 664.344
21.87000 958.981
22.04000 1015.527
22.21000 690.347
22.38000 574.253
22.55000 552.039
22.72000 530.846
22.89000 524.168
23.06000 516.133
23.23000 507.647
23.40000 519.930
23.57000 523.733
23.74000 511.274
23.91000 498.332
24.08000 503.576
24.25000 508.776
24.42000 494.780
24.59000 488.818
24.76000 507.979
24.93000 467.794
25.10000 492.885
25.27000 487.190
25.44000 481.338
25.61000 476.287
25.78000 478.644
25.95000 482.095
26.12000 453.709
26.29000 470.675
26.46000 479.250
26.63000 466.272
26.80000 475.355
26.97000 464.643
27.14000 442.766
27.31000 454.310
27.48000 446.324
27.65000 461.669
27.82000 456.084
27.99000 453.727
28.16000 463.740
28.33000 434.336
28.50000 464.327
28.67000 454.019
28.84000 439.823
29.01000 434.506
29.18000 445.917
29.35000 427.917
29.52000 432.023
29.69000 450.136
29.86000 455.311
30.03000 473.363
30.20000 451.072
30.37000 448.708
30.54000 450.632
30.71000 494.315
30.88000 621.281
31.05000 1284.605
31.22000 3504.291
31.39000 2713.417
31.56000 889.374
31.73000 536.903
31.90000 471.287
32.07000 433.028
32.24000 408.944
32.41000 395.389
32.58000 394.738
32.75000 372.276
32.92000 364.258
33.09000 356.075
33.26000 373.667
33.43000 371.251
33.60000 355.405
33.77000 354.551
33.94000 335.471
34.11000 341.987
34.28000 339.675
34.45000 341.305
34.62000 333.461
34.79000 334.335
34.96000 324.599
35.13000 342.475
35.30000 319.928
35.47000 320.283
35.64000 303.491
35.81000 317.715
35.98000 306.641
36.15000 291.083
36.32000 296.635
36.49000 307.619
36.66000 314.309
36.83000 312.600
37.00000 313.703
37.17000 308.442
37.34000 292.951
37.51000 301.443
37.68000 290.881
37.85000 301.308
38.02000 315.861
38.19000 328.042
38.36000 386.294
38.53000 488.322
38.70000 442.401
38.87000 344.328
39.04000 300.846
39.21000 289.486
39.38000 263.269
39.55000 279.034
39.72000 277.327
39.89000 272.496
40.06000 273.247
40.23000 253.137
40.40000 262.193
40.57000 252.642
40.74000 253.523
40.91000 263.256
41.08000 252.021
41.25000 256.671
41.42000 243.440
41.59000 239.283
41.76000 254.275
41.93000 236.311
42.10000 246.426
42.27000 232.367
42.44000 246.841
42.61000 243.150
42.78000 251.412
42.95000 231.672
43.12000 238.364
43.29000 240.741
43.46000 235.604
43.63000 242.302
43.80000 243.569
43.97000 224.988
44.14000 248.278
44.31000 252.449
44.48000 292.979
44.65000 435.385
44.82000 637.268
44.99000 631.824
45.16000 426.039
45.33000 302.233
45.50000 268.055
45.67000 230.016
45.84000 209.315
46.01000 214.620
46.18000 211.527
46.35000 207.573
46.52000 206.689
46.69000 207.813
46.86000 210.549
47.03000 208.149
47.20000 208.560
47.37000 195.806
47.54000 193.062
47.71000 192.315
47.88000 187.360
48.05000 190.230
48.22000 186.039
48.39000 193.254
48.56000 190.407
48.73000 189.636
48.90000 193.236
49.07000 187.908
49.24000 182.911
49.41000 185.187
49.58000 183.081
49.75000 185.120
49.92000 172.956
50.09000 191.282
50.26000 226.838
50.43000 276.996
50.60000 277.059
50.77000 246.395
50.94000 183.428
51.11000 184.312
51.28000 186.179
51.45000 171.349
51.62000 170.395
51.79000 173.936
51.96000 163.437
52.13000 166.429
52.30000 154.102
52.47000 163.360
52.64000 168.034
52.81000 170.833
52.98000 164.309
53.15000 174.909
53.32000 161.966
53.49000 167.255
53.66000 160.282
53.83000 160.953
54.00000 153.847
54.17000 169.510
54.34000 164.519
54.51000 167.203
54.68000 164.322
54.85000 161.029
55.02000 182.004
55.19000 193.426
55.36000 239.705
55.53000 383.409
55.70000 522.709
55.87000 467.729
56.04000 297.714
56.21000 205.533
56.38000 191.855
56.55000 162.197
56.72000 166.877
56.89000 146.181
57.06000 146.446
57.23000 146.048
57.40000 135.017
57.57000 154.754
57.74000 143.802
57.91000 148.096
58.08000 140.113
58.25000 142.764
58.42000 145.494
58.59000 134.115
58.76000 138.210
58.93000 140.224
59.10000 133.591
59.27000 134.058
59.44000 136.489
59.61000 134.687
59.78000 131.251
59.95000 123.405
60.12000 128.603
60.29000 136.209
60.46000 133.260
60.63000 130.945
60.80000 139.104
60.97000 129.062
61.14000 141.386
61.31000 143.241
61.48000 166.127
61.65000 346.504
61.82000 230.112
61.99000 138.784
62.16000 142.294
62.33000 153.452
62.50000 151.704
62.67000 148.279
62.84000 134.872
63.01000 144.204
63.18000 145.459
63.35000 155.915
63.52000 151.203
63.69000 160.717
63.86000 158.418
64.03000 158.087
64.20000 157.482
64.37000 171.520
64.54000 174.998
64.71000 178.505
64.88000 199.033
65.05000 287.372
65.22000 387.826
65.39000 400.385
65.56000 379.250
65.73000 798.816
65.90000 1372.026
66.07000 431.517
66.24000 363.307
66.41000 527.870
66.58000 391.027
66.75000 331.763
66.92000 366.982
67.09000 394.770
67.26000 414.608
67.43000 444.627
67.60000 495.301
67.77000 537.779
67.94000 576.418
68.11000 604.798
68.28000 698.890
68.45000 849.575
68.62000 1304.577
68.79000 2550.756
68.96000 23196.723
69.13000 87549.445
69.30000 51533.883
69.47000 11813.512
69.64000 1618.379
69.81000 1007.727
69.98000 781.398
70.00000 764.137

File: BTO_Mapping_Theta2Theta_09-17-2025_001_18_-15-000_0-000.xy
20.00000 588.601
20.17000 556.570
20.34000 566.780
20.51000 536.520
20.68000 543.364
20.85000 541.831
21.02000 569.360
21.19000 559.488
21.36000 541.172
21.53000 574.102
21.70000 603.214
21.87000 754.454
22.04000 920.163
22.21000 682.578
22.38000 536.414
22.55000 530.085
22.72000 534.673
22.89000 514.784
23.06000 490.387
23.23000 505.472
23.40000 515.495
23.57000 495.671
23.74000 523.076
23.91000 504.036
24.08000 503.491
24.25000 496.503
24.42000 485.607
24.59000 477.878
24.76000 495.016
24.93000 465.760
25.10000 461.437
25.27000 469.193
25.44000 454.161
25.61000 471.484
25.78000 481.527
25.95000 462.119
26.12000 449.865
26.29000 479.204
26.46000 459.610
26.63000 455.718
26.80000 456.773
26.97000 448.370
27.14000 450.687
27.31000 457.360
27.48000 442.493
27.65000 445.585
27.82000 424.409
27.99000 434.741
28.16000 442.719
28.33000 443.678
28.50000 432.940
28.67000 424.600
28.84000 413.777
29.01000 425.894
29.18000 417.778
29.35000 417.136
29.52000 426.424
29.69000 435.305
29.86000 442.030
30.03000 456.025
30.20000 436.473
30.37000 437.903
30.54000 449.485
30.71000 467.543
30.88000 516.109
31.05000 786.920
31.22000 2480.576
31.39000 3753.311
31.56000 1381.849
31.73000 574.033
31.90000 456.735
32.07000 422.431
32.24000 409.932
32.41000 386.997
32.58000 384.982
32.75000 379.630
32.92000 365.359
33.09000 358.850
33.26000 336.784
33.43000 354.544
33.60000 344.449
33.77000 338.836
33.94000 343.483
34.11000 346.393
34.28000 322.038
34.45000 321.407
34.62000 326.863
34.79000 321.911
34.96000 312.244
35.13000 324.285
35.30000 305.974
35.47000 318.230
35.64000 304.968
35.81000 303.542
35.98000 308.550
36.15000 307.274
36.32000 291.911
36.49000 299.137
36.66000 304.477
36.83000 295.030
37.00000 313.034
37.17000 296.694
37.34000 286.278
37.51000 282.942
37.68000 286.210
37.85000 286.431
38.02000 289.905
38.19000 311.124
38.36000 361.049
38.53000 510.158
38.70000 601.259
38.87000 437.563
39.04000 296.988
39.21000 282.191
39.38000 271.059
39.55000 273.738
39.72000 265.789
39.89000 276.089
40.06000 271.213
40.23000 257.311
40.40000 252.907
40.57000 254.142
40.74000 259.432
40.91000 249.936
41.08000 257.408
41.25000 251.902
41.42000 257.132
41.59000 247.790
41.76000 236.499
41.93000 236.241
42.10000 237.540
42.27000 230.337
42.44000 233.595
42.61000 212.177
42.78000 237.782
42.95000 251.799
43.12000 229.410
43.29000 218.580
43.46000 226.934
43.63000 214.774
43.80000 224.828
43.97000 232.400
44.14000 227.473
44.31000 230.264
44.48000 236.555
44.65000 265.306
44.82000 401.445
44.99000 568.629
45.16000 441.457
45.33000 283.125
45.50000 239.810
45.67000 216.207
45.84000 215.968
46.01000 224.793
46.18000 214.866
46.35000 207.438
46.52000 214.815
46.69000 204.734
46.86000 192.428
47.03000 198.953
47.20000 200.028
47.37000 186.345
47.54000 183.876
47.71000 197.065
47.88000 189.868
48.05000 190.571
48.22000 185.926
48.39000 182.572
48.56000 177.630
48.73000 186.309
48.90000 180.196
49.07000 165.959
49.24000 172.428
49.41000 169.083
49.58000 185.130
49.75000 182.633
49.92000 181.954
50.09000 185.242
50.26000 192.228
50.43000 234.259
50.60000 298.886
50.77000 271.195
50.94000 189.575
51.11000 175.603
51.28000 170.459
51.45000 164.235
51.62000 151.573
51.79000 170.012
51.96000 168.707
52.13000 145.174
52.30000 153.068
52.47000 161.123
52.64000 158.855
52.81000 159.681
52.98000 158.416
53.15000 153.908
53.32000 163.541
53.49000 159.815
53.66000 158.366
53.83000 152.286
54.00000 156.196
54.17000 166.527
54.34000 157.965
54.51000 169.502
54.68000 149.032
54.85000 161.583
55.02000 162.202
55.19000 161.127
55.36000 176.790
55.53000 227.227
55.70000 450.879
55.87000 640.429
56.04000 471.236
56.21000 255.911
56.38000 180.014
56.55000 162.888
56.72000 148.472
56.89000 155.506
57.06000 141.251
57.23000 154.167
57.40000 148.612
57.57000 140.453
57.74000 143.374
57.91000 149.446
58.08000 145.036
58.25000 139.858
58.42000 145.703
58.59000 143.876
58.76000 137.791
58.93000 136.135
59.10000 141.731
59.27000 133.406
59.44000 134.240
59.61000 126.900
59.78000 136.304
59.95000 124.383
60.12000 131.901
60.29000 126.524
60.46000 138.858
60.63000 131.917
60.80000 138.393
60.97000 137.016
61.14000 137.651
61.31000 140.727
61.48000 155.619
61.65000 333.370
61.82000 204.126
61.99000 144.146
62.16000 140.954
62.33000 140.977
62.50000 140.447
62.67000 147.124
62.84000 141.462
63.01000 151.353
63.18000 138.461
63.35000 156.209
63.52000 155.859
63.69000 155.910
63.86000 147.074
64.03000 151.712
64.20000 163.741
64.37000 160.723
64.54000 173.885
64.71000 184.748
64.88000 192.535
65.05000 207.843
65.22000 281.231
65.39000 415.581
65.56000 452.660
65.73000 841.094
65.90000 1340.689
66.07000 415.326
66.24000 341.042
66.41000 529.784
66.58000 365.712
66.75000 350.578
66.92000 367.045
67.09000 385.581
67.26000 435.820
67.43000 442.527
67.60000 487.871
67.77000 515.936
67.94000 575.967
68.11000 620.505
68.28000 691.576
68.45000 834.057
68.62000 1284.150
68.79000 2465.136
68.96000 22093.719
69.13000 83669.633
69.30000 48456.098
69.47000 10674.592
69.64000 1545.785
69.81000 980.573
69.98000 793.878
70.00000 776.271

File: BTO_Mapping_Theta2Theta_09-17-2025_001_19_0-000_0-000.xy
20.00000 537.074
20.17000 569.934
20.34000 570.495
20.51000 565.897
20.68000 557.618
20.85000 525.349
21.02000 560.999
21.19000 565.409
21.36000 588.474
21.53000 559.540
21.70000 563.866
21.87000 634.880
22.04000 813.783
22.21000 685.283
22.38000 565.493
22.55000 517.983
22.72000 525.777
22.89000 514.001
23.06000 516.332
23.23000 506.210
23.40000 510.309
23.57000 485.151
23.74000 502.236
23.91000 492.240
24.08000 479.753
24.25000 481.698
24.42000 482.258
24.59000 479.613
24.76000 475.812
24.93000 456.730
25.10000 467.936
25.27000 475.346
25.44000 461.734
25.61000 467.258
25.78000 448.901
25.95000 449.373
26.12000 452.747
26.29000 478.899
26.46000 451.734
26.63000 455.252
26.80000 466.887
26.97000 463.873
27.14000 454.219
27.31000 426.891
27.48000 421.875
27.65000 429.445
27.82000 436.223
27.99000 446.749
28.16000 437.571
28.33000 419.090
28.50000 418.697
28.67000 419.819
28.84000 409.549
29.01000 414.358
29.18000 397.204
29.35000 401.328
29.52000 409.471
29.69000 417.580
29.86000 420.041
30.03000 466.590
30.20000 443.095
30.37000 423.739
30.54000 437.568
30.71000 449.077
30.88000 488.528
31.05000 677.946
31.22000 1912.497
31.39000 3692.910
31.56000 1749.568
31.73000 573.712
31.90000 439.938
32.07000 425.400
32.24000 403.238
32.41000 375.739
32.58000 376.159
32.75000 367.670
32.92000 341.534
33.09000 320.402
33.26000 345.044
33.43000 332.014
33.60000 335.050
33.77000 330.927
33.94000 336.681
34.11000 330.365
34.28000 336.614
34.45000 311.071
34.62000 333.462
34.79000 303.384
34.96000 322.118
35.13000 318.086
35.30000 319.483
35.47000 309.885
35.64000 308.203
35.81000 290.169
35.98000 295.534
36.15000 286.392
36.32000 297.229
36.49000 298.903
36.66000 284.626
36.83000 293.640
37.00000 299.970
37.17000 296.639
37.34000 293.512
37.51000 291.165
37.68000 307.214
37.85000 280.542
38.02000 309.245
38.19000 305.320
38.36000 326.152
38.53000 504.702
38.70000 778.981
38.87000 571.666
39.04000 331.013
39.21000 289.532
39.38000 289.392
39.55000 272.014
39.72000 275.870
39.89000 247.130
40.06000 259.832
40.23000 271.714
40.40000 248.099
40.57000 251.145
40.74000 256.384
40.91000 246.195
41.08000 246.133
41.25000 252.402
41.42000 229.983
41.59000 243.967
41.76000 247.372
41.93000 234.917
42.10000 249.927
42.27000 261.274
42.44000 231.531
42.61000 218.611
42.78000 234.174
42.95000 226.555
43.12000 228.736
43.29000 216.357
43.46000 207.755
43.63000 230.985
43.80000 227.370
43.97000 221.530
44.14000 221.049
44.31000 204.949
44.48000 240.452
44.65000 224.631
44.82000 285.352
44.99000 426.732
45.16000 451.328
45.33000 310.404
45.50000 247.801
45.67000 216.378
45.84000 204.455
46.01000 205.109
46.18000 201.820
46.35000 214.482
46.52000 194.520
46.69000 211.355
46.86000 198.445
47.03000 189.554
47.20000 199.574
47.37000 189.378
47.54000 201.052
47.71000 195.068
47.88000 188.015
48.05000 198.456
48.22000 179.681
48.39000 173.595
48.56000 170.426
48.73000 178.624
48.90000 176.179
49.07000 174.059
49.24000 182.688
49.41000 178.560
49.58000 179.596
49.75000 186.187
49.92000 181.447
50.09000 170.397
50.26000 189.484
50.43000 211.486
50.60000 258.601
50.77000 260.856
50.94000 228.681
51.11000 180.089
51.28000 175.137
51.45000 166.202
51.62000 161.934
51.79000 151.933
51.96000 159.927
52.13000 170.541
52.30000 161.373
52.47000 165.005
52.64000 154.349
52.81000 156.584
52.98000 152.237
53.15000 166.096
53.32000 156.080
53.49000 173.154
53.66000 168.199
53.83000 158.968
54.00000 158.855
54.17000 153.264
54.34000 156.995
54.51000 157.633
54.68000 151.914
54.85000 155.813
55.02000 155.821
55.19000 167.090
55.36000 174.177
55.53000 199.093
55.70000 328.891
55.87000 607.318
56.04000 579.380
56.21000 343.106
56.38000 191.721
56.55000 166.687
56.72000 161.188
56.89000 153.538
57.06000 146.700
57.23000 136.398
57.40000 143.105
57.57000 142.216
57.74000 136.532
57.91000 132.735
58.08000 141.561
58.25000 141.549
58.42000 128.021
58.59000 151.117
58.76000 138.532
58.93000 141.771
59.10000 132.274
59.27000 138.286
59.44000 132.755
59.61000 130.859
59.78000 133.542
59.95000 130.649
60.12000 127.091
60.29000 144.207
60.46000 130.376
60.63000 130.918
60.80000 136.671
60.97000 124.668
61.14000 139.136
61.31000 135.034
61.48000 153.307
61.65000 307.278
61.82000 204.713
61.99000 142.620
62.16000 131.649
62.33000 152.207
62.50000 135.774
62.67000 143.530
62.84000 149.262
63.01000 141.821
63.18000 148.164
63.35000 147.589
63.52000 143.393
63.69000 150.073
63.86000 158.957
64.03000 156.596
64.20000 155.364
64.37000 169.386
64.54000 176.059
64.71000 181.848
64.88000 190.594
65.05000 199.513
65.22000 231.809
65.39000 341.313
65.56000 453.227
65.73000 797.483
65.90000 1258.590
66.07000 399.824
66.24000 336.694
66.41000 457.441
66.58000 365.624
66.75000 336.506
66.92000 348.399
67.09000 376.390
67.26000 405.931
67.43000 423.529
67.60000 474.056
67.77000 487.245
67.94000 542.476
68.11000 607.349
68.28000 673.009
68.45000 780.829
68.62000 1212.019
68.79000 2267.784
68.96000 18363.201
69.13000 75018.086
69.30000 43488.145
69.47000 9545.483
69.64000 1413.466
69.81000 955.928
69.98000 745.320
70.00000 740.738