Folder: Master-Thesis/XRD/17-09-2025/XY Data

File: BTO_fwhm_results.csv
X Coordinates,Y Coordinates,FWHM
-45.0,0.0,0.302655
-30.0,-30.0,0.310129
-30.0,-15.0,0.317339
-30.0,0.0,0.318096
-30.0,15.0,0.305262
-30.0,30.0,0.307309
-15.0,-45.0,0.328766
-15.0,-30.0,0.309924
-15.0,-15.0,0.305858
-15.0,0.0,0.30364
-15.0,15.0,0.312431
-15.0,30.0,0.315722
0.0,-45.0,0.311528
0.0,-30.0,0.31277
0.0,-15.0,0.309049
0.0,0.0,0.30795
0.0,15.0,0.312145
0.0,30.0,0.311784
15.0,-45.0,0.337179
15.0,-30.0,0.311013
15.0,-15.0,0.317552
15.0,0.0,0.315349
15.0,15.0,0.322099
15.0,30.0,0.328691
30.0,-30.0,0.334455
30.0,-15.0,0.329794
30.0,0.0,0.327418
30.0,15.0,0.32377

File: BTO_Mapping_Theta2Theta_09-17-2025_001_01_-15-000_-45-000.xy
20.00000 548.822
20.17000 527.117
20.34000 560.612
20.51000 539.860
20.68000 559.762
20.85000 553.559
21.02000 520.749
21.19000 513.603
21.36000 550.841
21.53000 531.512
21.70000 547.684
21.87000 604.605
22.04000 640.916
22.21000 602.682
22.38000 531.523
22.55000 528.071
22.72000 515.590
22.89000 497.662
23.06000 520.191
23.23000 489.142
23.40000 499.116
23.57000 494.034
23.74000 482.539
23.91000 484.798
24.08000 477.364
24.25000 474.372
24.42000 487.621
24.59000 463.633
24.76000 470.626
24.93000 458.404
25.10000 465.984
25.27000 463.957
25.44000 465.957
25.61000 457.753
25.78000 459.870
25.95000 459.838
26.12000 449.651
26.29000 444.482
26.46000 436.185
26.63000 429.987
26.80000 410.977
26.97000 437.465
27.14000 440.846
27.31000 424.672
27.48000 439.127
27.65000 432.209
27.82000 420.404
27.99000 409.860
28.16000 412.111
28.33000 434.863
28.50000 408.641
28.67000 423.499
28.84000 413.111
29.01000 391.881
29.18000 412.789
29.35000 394.038
29.52000 405.983
29.69000 376.007
29.86000 411.242
30.03000 418.161
30.20000 409.145
30.37000 408.532
30.54000 398.156
30.71000 406.378
30.88000 438.338
31.05000 541.345
31.22000 1155.781
31.39000 2238.076
31.56000 1449.833
31.73000 542.353
31.90000 413.214
32.07000 380.765
32.24000 367.076
32.41000 373.969
32.58000 335.671
32.75000 345.591
32.92000 349.789
33.09000 344.490
33.26000 346.291
33.43000 340.911
33.60000 329.372
33.77000 328.064
33.94000 325.068
34.11000 318.960
34.28000 320.510
34.45000 325.561
34.62000 324.203
34.79000 315.088
34.96000 312.006
35.13000 311.999
35.30000 311.677
35.47000 307.570
35.64000 293.653
35.81000 293.694
35.98000 286.951
36.15000 306.459
36.32000 299.556
36.49000 294.866
36.66000 299.005
36.83000 292.582
37.00000 288.906
37.17000 285.913
37.34000 284.147
37.51000 280.985
37.68000 290.861
37.85000 298.451
38.02000 269.473
38.19000 280.163
38.36000 292.991
38.53000 324.675
38.70000 371.690
38.87000 356.255
39.04000 291.358
39.21000 251.458
39.38000 254.376
39.55000 273.057
39.72000 257.431
39.89000 259.525
40.06000 254.961
40.23000 244.975
40.40000 261.005
40.57000 233.653
40.74000 265.285
40.91000 236.154
41.08000 229.213
41.25000 226.758
41.42000 239.418
41.59000 240.537
41.76000 225.246
41.93000 234.868
42.10000 238.773
42.27000 224.620
42.44000 225.098
42.61000 232.069
42.78000 228.422
42.95000 231.317
43.12000 228.474
43.29000 209.481
43.46000 209.817
43.63000 236.032
43.80000 213.237
43.97000 214.025
44.14000 210.390
44.31000 206.607
44.48000 214.016
44.65000 231.633
44.82000 257.465
44.99000 296.692
45.16000 318.415
45.33000 274.922
45.50000 226.519
45.67000 220.042
45.84000 201.220
46.01000 207.895
46.18000 206.710
46.35000 210.016
46.52000 188.247
46.69000 192.113
46.86000 197.971
47.03000 180.185
47.20000 189.549
47.37000 181.346
47.54000 191.072
47.71000 179.014
47.88000 179.109
48.05000 179.596
48.22000 185.046
48.39000 176.300
48.56000 176.569
48.73000 179.126
48.90000 170.298
49.07000 176.662
49.24000 170.948
49.41000 174.784
49.58000 180.025
49.75000 171.544
49.92000 182.208
50.09000 173.967
50.26000 175.911
50.43000 183.962
50.60000 210.409
50.77000 199.642
50.94000 198.243
51.11000 174.101
51.28000 170.151
51.45000 172.171
51.62000 161.627
51.79000 155.198
51.96000 157.023
52.13000 164.623
52.30000 163.874
52.47000 159.250
52.64000 169.494
52.81000 149.296
52.98000 161.322
53.15000 163.284
53.32000 145.651
53.49000 148.250
53.66000 160.949
53.83000 154.862
54.00000 140.410
54.17000 145.731
54.34000 145.575
54.51000 141.644
54.68000 154.071
54.85000 148.090
55.02000 148.257
55.19000 146.745
55.36000 156.018
55.53000 168.696
55.70000 198.294
55.87000 272.589
56.04000 259.080
56.21000 217.705
56.38000 161.630
56.55000 154.638
56.72000 134.460
56.89000 144.803
57.06000 131.233
57.23000 133.269
57.40000 130.925
57.57000 145.921
57.74000 128.024
57.91000 137.578
58.08000 134.118
58.25000 127.458
58.42000 133.991
58.59000 135.221
58.76000 129.833
58.93000 135.148
59.10000 125.088
59.27000 128.674
59.44000 131.295
59.61000 142.061
59.78000 133.738
59.95000 138.034
60.12000 131.554
60.29000 136.732
60.46000 126.923
60.63000 142.789
60.80000 134.106
60.97000 137.376
61.14000 132.349
61.31000 138.654
61.48000 147.012
61.65000 284.140
61.82000 193.742
61.99000 140.301
62.16000 140.577
62.33000 134.389
62.50000 136.804
62.67000 149.371
62.84000 146.949
63.01000 139.216
63.18000 148.884
63.35000 153.133
63.52000 154.951
63.69000 157.282
63.86000 150.998
64.03000 153.994
64.20000 158.732
64.37000 161.934
64.54000 165.431
64.71000 169.084
64.88000 169.922
65.05000 203.049
65.22000 232.773
65.39000 277.820
65.56000 344.614
65.73000 648.334
65.90000 1075.259
66.07000 385.706
66.24000 312.746
66.41000 448.746
66.58000 339.392
66.75000 303.284
66.92000 337.934
67.09000 366.407
67.26000 395.035
67.43000 423.165
67.60000 463.432
67.77000 491.754
67.94000 550.903
68.11000 583.452
68.28000 649.491
68.45000 757.654
68.62000 1117.755
68.79000 2072.212
68.96000 14967.632
69.13000 64306.473
69.30000 37583.750
69.47000 8752.931
69.64000 1382.415
69.81000 928.170
69.98000 734.271
70.00000 722.895

File: BTO_Mapping_Theta2Theta_09-17-2025_001_06_0-000_-30-000.xy
20.00000 555.326
20.17000 557.892
20.34000 555.137
20.51000 554.254
20.68000 537.964
20.85000 539.496
21.02000 556.942
21.19000 543.888
21.36000 510.173
21.53000 552.299
21.70000 549.101
21.87000 611.738
22.04000 783.924
22.21000 679.746
22.38000 551.564
22.55000 527.444
22.72000 528.835
22.89000 509.546
23.06000 509.873
23.23000 525.730
23.40000 501.846
23.57000 499.645
23.74000 505.325
23.91000 488.293
24.08000 493.392
24.25000 473.482
24.42000 478.167
24.59000 501.739
24.76000 476.209
24.93000 472.793
25.10000 472.229
25.27000 482.253
25.44000 470.099
25.61000 461.320
25.78000 451.532
25.95000 453.964
26.12000 451.912
26.29000 463.290
26.46000 442.159
26.63000 455.091
26.80000 436.226
26.97000 433.772
27.14000 437.281
27.31000 436.986
27.48000 434.545
27.65000 431.960
27.82000 432.510
27.99000 419.663
28.16000 437.086
28.33000 448.950
28.50000 416.221
28.67000 398.136
28.84000 410.254
29.01000 422.560
29.18000 416.226
29.35000 412.775
29.52000 423.711
29.69000 405.634
29.86000 427.638
30.03000 432.845
30.20000 433.943
30.37000 433.600
30.54000 434.604
30.71000 443.489
30.88000 484.426
31.05000 674.410
31.22000 1959.809
31.39000 3921.543
31.56000 1943.736
31.73000 594.958
31.90000 450.374
32.07000 411.066
32.24000 398.028
32.41000 383.969
32.58000 373.367
32.75000 372.071
32.92000 367.301
33.09000 351.520
33.26000 350.067
33.43000 340.637
33.60000 332.305
33.77000 340.343
33.94000 327.956
34.11000 321.493
34.28000 333.611
34.45000 315.660
34.62000 337.648
34.79000 317.151
34.96000 320.218
35.13000 305.146
35.30000 321.881
35.47000 311.513
35.64000 310.325
35.81000 288.643
35.98000 294.158
36.15000 308.163
36.32000 294.627
36.49000 294.728
36.66000 298.681
36.83000 297.345
37.00000 294.950
37.17000 301.900
37.34000 297.238
37.51000 296.459
37.68000 285.005
37.85000 310.897
38.02000 279.055
38.19000 293.560
38.36000 326.485
38.53000 511.521
38.70000 862.547
38.87000 643.285
39.04000 319.029
39.21000 285.433
39.38000 278.809
39.55000 261.966
39.72000 267.058
39.89000 256.280
40.06000 252.123
40.23000 262.513
40.40000 250.504
40.57000 251.458
40.74000 241.106
40.91000 252.328
41.08000 244.653
41.25000 235.100
41.42000 242.920
41.59000 233.798
41.76000 234.848
41.93000 232.362
42.10000 212.030
42.27000 237.200
42.44000 225.660
42.61000 221.654
42.78000 223.438
42.95000 237.322
43.12000 225.232
43.29000 223.313
43.46000 218.334
43.63000 229.399
43.80000 212.257
43.97000 230.458
44.14000 223.944
44.31000 229.692
44.48000 234.942
44.65000 234.367
44.82000 280.294
44.99000 377.267
45.16000 410.962
45.33000 297.835
45.50000 239.588
45.67000 215.605
45.84000 203.749
46.01000 214.668
46.18000 210.611
46.35000 209.270
46.52000 193.638
46.69000 201.147
46.86000 184.541
47.03000 187.763
47.20000 191.200
47.37000 199.781
47.54000 191.971
47.71000 180.060
47.88000 180.931
48.05000 197.772
48.22000 178.165
48.39000 187.599
48.56000 186.515
48.73000 176.930
48.90000 184.134
49.07000 177.199
49.24000 169.182
49.41000 168.865
49.58000 176.755
49.75000 181.557
49.92000 170.206
50.09000 169.967
50.26000 185.927
50.43000 192.813
50.60000 263.006
50.77000 268.475
50.94000 216.351
51.11000 190.552
51.28000 171.545
51.45000 170.720
51.62000 172.404
51.79000 145.336
51.96000 171.669
52.13000 162.127
52.30000 163.860
52.47000 159.316
52.64000 162.874
52.81000 154.161
52.98000 157.624
53.15000 158.682
53.32000 160.139
53.49000 164.620
53.66000 162.879
53.83000 163.321
54.00000 161.199
54.17000 158.303
54.34000 155.962
54.51000 149.298
54.68000 157.740
54.85000 154.832
55.02000 150.116
55.19000 165.581
55.36000 165.476
55.53000 192.927
55.70000 315.374
55.87000 595.779
56.04000 617.581
56.21000 359.725
56.38000 201.977
56.55000 166.152
56.72000 157.432
56.89000 143.229
57.06000 160.525
57.23000 137.962
57.40000 150.255
57.57000 139.652
57.74000 146.983
57.91000 135.765
58.08000 140.131
58.25000 141.432
58.42000 132.841
58.59000 123.473
58.76000 139.713
58.93000 134.917
59.10000 140.747
59.27000 134.584
59.44000 126.479
59.61000 126.525
59.78000 129.552
59.95000 128.316
60.12000 135.361
60.29000 125.647
60.46000 127.953
60.63000 132.296
60.80000 132.308
60.97000 139.993
61.14000 128.082
61.31000 142.224
61.48000 155.143
61.65000 306.289
61.82000 205.843
61.99000 142.303
62.16000 132.054
62.33000 136.659
62.50000 134.008
62.67000 149.711
62.84000 153.143
63.01000 145.204
63.18000 150.305
63.35000 153.158
63.52000 153.695
63.69000 147.287
63.86000 147.748
64.03000 158.618
64.20000 168.368
64.37000 169.358
64.54000 169.656
64.71000 166.071
64.88000 181.713
65.05000 190.950
65.22000 247.486
65.39000 328.103
65.56000 454.585
65.73000 837.049
65.90000 1280.608
66.07000 391.507
66.24000 331.187
66.41000 474.369
66.58000 338.181
66.75000 326.046
66.92000 337.620
67.09000 366.682
67.26000 416.071
67.43000 442.319
67.60000 479.497
67.77000 511.587
67.94000 560.305
68.11000 603.303
68.28000 683.207
68.45000 804.668
68.62000 1223.761
68.79000 2325.420
68.96000 19837.914
69.13000 76347.586
69.30000 43865.063
69.47000 9423.462
69.64000 1429.608
69.81000 923.758
69.98000 754.938
70.00000 746.479

File: BTO_Mapping_Theta2Theta_09-17-2025_001_07_15-000_-30-000.xy
20.00000 551.563
20.17000 557.171
20.34000 521.266
20.51000 538.826
20.68000 541.366
20.85000 548.913
21.02000 565.078
21.19000 549.253
21.36000 511.330
21.53000 539.778
21.70000 556.231
21.87000 576.435
22.04000 635.921
22.21000 625.064
22.38000 548.671
22.55000 514.861
22.72000 512.558
22.89000 506.645
23.06000 502.398
23.23000 537.595
23.40000 499.347
23.57000 499.339
23.74000 495.917
23.91000 502.705
24.08000 486.487
24.25000 493.434
24.42000 497.412
24.59000 490.846
24.76000 483.277
24.93000 467.109
25.10000 469.188
25.27000 474.944
25.44000 466.951
25.61000 442.204
25.78000 448.619
25.95000 457.756
26.12000 461.258
26.29000 451.866
26.46000 450.526
26.63000 449.800
26.80000 433.450
26.97000 439.123
27.14000 424.954
27.31000 433.371
27.48000 441.210
27.65000 418.012
27.82000 425.213
27.99000 420.646
28.16000 423.609
28.33000 427.977
28.50000 406.963
28.67000 416.776
28.84000 413.149
29.01000 411.468
29.18000 419.343
29.35000 385.481
29.52000 420.975
29.69000 401.294
29.86000 417.039
30.03000 413.251
30.20000 422.105
30.37000 402.869
30.54000 414.740
30.71000 435.447
30.88000 481.007
31.05000 599.316
31.22000 1583.361
31.39000 3385.798
31.56000 1859.372
31.73000 606.399
31.90000 452.895
32.07000 392.603
32.24000 380.348
32.41000 390.808
32.58000 365.960
32.75000 355.028
32.92000 359.263
33.09000 351.836
33.26000 338.895
33.43000 333.932
33.60000 339.818
33.77000 340.120
33.94000 331.008
34.11000 323.824
34.28000 325.831
34.45000 320.294
34.62000 321.612
34.79000 318.238
34.96000 320.771
35.13000 307.455
35.30000 306.583
35.47000 309.393
35.64000 297.126
35.81000 294.252
35.98000 290.722
36.15000 294.748
36.32000 289.270
36.49000 302.974
36.66000 301.726
36.83000 295.746
37.00000 301.600
37.17000 304.546
37.34000 304.473
37.51000 308.419
37.68000 286.232
37.85000 293.756
38.02000 299.340
38.19000 305.673
38.36000 328.303
38.53000 511.084
38.70000 961.911
38.87000 801.414
39.04000 361.877
39.21000 284.912
39.38000 279.223
39.55000 268.216
39.72000 269.573
39.89000 248.966
40.06000 271.110
40.23000 251.235
40.40000 250.686
40.57000 240.008
40.74000 255.038
40.91000 246.195
41.08000 256.836
41.25000 229.449
41.42000 227.651
41.59000 240.746
41.76000 231.796
41.93000 242.444
42.10000 233.736
42.27000 226.296
42.44000 233.267
42.61000 252.096
42.78000 218.446
42.95000 223.363
43.12000 218.689
43.29000 223.552
43.46000 219.728
43.63000 215.073
43.80000 218.655
43.97000 229.486
44.14000 226.222
44.31000 210.961
44.48000 214.210
44.65000 244.311
44.82000 229.756
44.99000 279.943
45.16000 312.764
45.33000 269.945
45.50000 237.856
45.67000 216.026
45.84000 229.000
46.01000 194.256
46.18000 199.046
46.35000 202.476
46.52000 200.923
46.69000 206.274
46.86000 190.128
47.03000 187.721
47.20000 195.006
47.37000 184.656
47.54000 177.639
47.71000 187.642
47.88000 189.937
48.05000 179.160
48.22000 177.822
48.39000 182.657
48.56000 189.378
48.73000 175.031
48.90000 170.799
49.07000 181.761
49.24000 168.608
49.41000 165.260
49.58000 184.005
49.75000 169.921
49.92000 168.274
50.09000 186.068
50.26000 175.092
50.43000 204.458
50.60000 216.257
50.77000 256.923
50.94000 215.239
51.11000 190.741
51.28000 169.893
51.45000 153.052
51.62000 166.544
51.79000 157.533
51.96000 158.251
52.13000 160.676
52.30000 154.765
52.47000 165.301
52.64000 151.171
52.81000 160.705
52.98000 150.841
53.15000 148.912
53.32000 164.131
53.49000 150.391
53.66000 154.163
53.83000 158.375
54.00000 153.042
54.17000 142.817
54.34000 160.605
54.51000 146.367
54.68000 154.991
54.85000 142.213
55.02000 160.371
55.19000 167.825
55.36000 171.420
55.53000 204.422
55.70000 280.921
55.87000 553.260
56.04000 628.025
56.21000 384.288
56.38000 217.387
56.55000 170.751
56.72000 166.534
56.89000 150.287
57.06000 144.518
57.23000 139.661
57.40000 145.221
57.57000 137.334
57.74000 140.678
57.91000 142.877
58.08000 146.569
58.25000 135.231
58.42000 145.827
58.59000 137.920
58.76000 134.823
58.93000 132.922
59.10000 133.847
59.27000 136.819
59.44000 130.770
59.61000 129.848
59.78000 127.408
59.95000 136.047
60.12000 122.847
60.29000 138.795
60.46000 135.969
60.63000 128.500
60.80000 132.530
60.97000 137.665
61.14000 131.429
61.31000 132.824
61.48000 147.456
61.65000 257.742
61.82000 190.798
61.99000 144.909
62.16000 141.632
62.33000 140.094
62.50000 139.614
62.67000 146.752
62.84000 147.317
63.01000 144.630
63.18000 152.997
63.35000 145.133
63.52000 159.895
63.69000 140.791
63.86000 150.502
64.03000 153.965
64.20000 158.848
64.37000 170.161
64.54000 162.274
64.71000 166.972
64.88000 169.277
65.05000 189.535
65.22000 227.926
65.39000 285.861
65.56000 389.628
65.73000 653.056
65.90000 972.197
66.07000 335.208
66.24000 293.674
66.41000 408.150
66.58000 339.533
66.75000 293.884
66.92000 331.059
67.09000 326.313
67.26000 366.748
67.43000 381.116
67.60000 409.859
67.77000 441.319
67.94000 476.547
68.11000 515.988
68.28000 585.035
68.45000 689.106
68.62000 965.053
68.79000 1778.555
68.96000 12780.466
69.13000 53171.754
69.30000 30683.369
69.47000 6609.745
69.64000 1125.105
69.81000 771.493
69.98000 646.219
70.00000 637.252

File: BTO_Mapping_Theta2Theta_09-17-2025_001_08_30-000_-30-000.xy
20.00000 549.682
20.17000 539.460
20.34000 539.147
20.51000 537.615
20.68000 543.727
20.85000 545.188
21.02000 542.419
21.19000 531.619
21.36000 550.953
21.53000 545.250
21.70000 550.079
21.87000 589.673
22.04000 636.220
22.21000 621.858
22.38000 566.548
22.55000 520.880
22.72000 515.174
22.89000 510.092
23.06000 510.050
23.23000 525.605
23.40000 496.231
23.57000 488.890
23.74000 500.821
23.91000 525.013
24.08000 520.756
24.25000 506.290
24.42000 497.901
24.59000 465.230
24.76000 496.537
24.93000 473.205
25.10000 452.910
25.27000 453.523
25.44000 462.640
25.61000 444.166
25.78000 453.305
25.95000 440.671
26.12000 462.380
26.29000 471.905
26.46000 453.001
26.63000 434.802
26.80000 448.949
26.97000 428.963
27.14000 437.650
27.31000 433.971
27.48000 445.981
27.65000 430.291
27.82000 415.931
27.99000 408.487
28.16000 421.534
28.33000 430.126
28.50000 409.885
28.67000 407.837
28.84000 416.653
29.01000 397.713
29.18000 408.226
29.35000 397.525
29.52000 399.587
29.69000 388.376
29.86000 393.956
30.03000 417.373
30.20000 413.847
30.37000 405.181
30.54000 418.130
30.71000 412.120
30.88000 449.070
31.05000 529.769
31.22000 1219.507
31.39000 2212.999
31.56000 1328.462
31.73000 556.687
31.90000 427.484
32.07000 393.318
32.24000 384.082
32.41000 386.231
32.58000 379.033
32.75000 360.685
32.92000 334.667
33.09000 348.070
33.26000 350.155
33.43000 337.108
33.60000 337.353
33.77000 329.603
33.94000 353.104
34.11000 331.829
34.28000 349.983
34.45000 360.004
34.62000 334.348
34.79000 321.792
34.96000 308.329
35.13000 319.187
35.30000 318.380
35.47000 305.706
35.64000 299.773
35.81000 307.271
35.98000 296.290
36.15000 289.170
36.32000 285.173
36.49000 298.177
36.66000 294.612
36.83000 287.268
37.00000 304.101
37.17000 303.522
37.34000 289.540
37.51000 284.133
37.68000 274.157
37.85000 293.202
38.02000 299.260
38.19000 285.188
38.36000 324.486
38.53000 511.553
38.70000 986.971
38.87000 828.861
39.04000 366.701
39.21000 281.452
39.38000 272.608
39.55000 258.883
39.72000 259.010
39.89000 263.080
40.06000 263.074
40.23000 258.546
40.40000 245.838
40.57000 243.037
40.74000 260.020
40.91000 247.626
41.08000 244.955
41.25000 233.410
41.42000 243.165
41.59000 234.815
41.76000 253.839
41.93000 236.248
42.10000 240.860
42.27000 238.548
42.44000 239.540
42.61000 232.049
42.78000 245.724
42.95000 227.126
43.12000 226.339
43.29000 223.372
43.46000 226.888
43.63000 214.722
43.80000 216.095
43.97000 216.188
44.14000 217.982
44.31000 212.940
44.48000 225.697
44.65000 248.648
44.82000 258.037
44.99000 277.297
45.16000 303.274
45.33000 260.764
45.50000 236.025
45.67000 211.829
45.84000 216.126
46.01000 202.555
46.18000 207.327
46.35000 192.619
46.52000 201.169
46.69000 194.177
46.86000 198.081
47.03000 188.852
47.20000 184.666
47.37000 185.087
47.54000 183.444
47.71000 186.206
47.88000 187.565
48.05000 174.528
48.22000 186.898
48.39000 175.331
48.56000 176.207
48.73000 177.131
48.90000 170.762
49.07000 188.875
49.24000 179.225
49.41000 174.106
49.58000 176.476
49.75000 175.080
49.92000 164.658
50.09000 167.392
50.26000 174.316
50.43000 184.785
50.60000 199.581
50.77000 240.579
50.94000 198.681
51.11000 168.555
51.28000 165.034
51.45000 169.852
51.62000 169.369
51.79000 170.948
51.96000 170.388
52.13000 145.282
52.30000 148.172
52.47000 149.640
52.64000 160.614
52.81000 156.426
52.98000 155.113
53.15000 153.516
53.32000 165.022
53.49000 160.272
53.66000 151.679
53.83000 150.196
54.00000 152.491
54.17000 156.634
54.34000 163.467
54.51000 157.092
54.68000 157.090
54.85000 153.202
55.02000 159.904
55.19000 160.089
55.36000 148.544
55.53000 181.607
55.70000 293.034
55.87000 507.302
56.04000 568.157
56.21000 350.618
56.38000 209.065
56.55000 163.238
56.72000 146.842
56.89000 150.280
57.06000 144.876
57.23000 138.098
57.40000 144.872
57.57000 134.745
57.74000 139.527
57.91000 136.681
58.08000 138.974
58.25000 139.874
58.42000 132.086
58.59000 133.954
58.76000 128.114
58.93000 135.122
59.10000 132.195
59.27000 124.458
59.44000 133.446
59.61000 133.126
59.78000 130.207
59.95000 131.019
60.12000 133.827
60.29000 131.833
60.46000 133.215
60.63000 133.123
60.80000 138.650
60.97000 140.941
61.14000 127.550
61.31000 140.087
61.48000 132.721
61.65000 245.206
61.82000 200.141
61.99000 136.413
62.16000 140.197
62.33000 130.637
62.50000 143.754
62.67000 134.168
62.84000 145.148
63.01000 135.389
63.18000 136.826
63.35000 146.296
63.52000 159.733
63.69000 148.399
63.86000 153.237
64.03000 154.948
64.20000 158.504
64.37000 158.651
64.54000 158.954
64.71000 171.993
64.88000 169.013
65.05000 191.686
65.22000 221.905
65.39000 250.470
65.56000 332.766
65.73000 543.254
65.90000 881.889
66.07000 331.475
66.24000 285.905
66.41000 384.319
66.58000 318.979
66.75000 293.895
66.92000 318.213
67.09000 324.487
67.26000 345.229
67.43000 389.684
67.60000 408.921
67.77000 435.936
67.94000 481.379
68.11000 548.492
68.28000 577.230
68.45000 667.372
68.62000 953.921
68.79000 1671.571
68.96000 10926.248
69.13000 49604.043
69.30000 29155.441
69.47000 6601.947
69.64000 1158.716
69.81000 785.625
69.98000 646.629
70.00000 623.321