Folder: Master-Thesis/XRD/17-09-2025/XY Data (part 4)

File: BTO_Mapping_Theta2Theta_09-17-2025_001_27_15-000_15-000.xy
20.00000 544.468
20.17000 548.622
20.34000 554.510
20.51000 541.840
20.68000 561.285
20.85000 534.876
21.02000 540.359
21.19000 540.781
21.36000 532.259
21.53000 533.570
21.70000 557.214
21.87000 571.855
22.04000 670.228
22.21000 610.063
22.38000 541.002
22.55000 522.518
22.72000 526.260
22.89000 490.845
23.06000 493.933
23.23000 508.120
23.40000 497.631
23.57000 501.954
23.74000 492.424
23.91000 502.723
24.08000 492.241
24.25000 487.950
24.42000 479.217
24.59000 480.725
24.76000 474.151
24.93000 460.378
25.10000 453.306
25.27000 471.479
25.44000 453.359
25.61000 439.958
25.78000 487.450
25.95000 457.317
26.12000 461.436
26.29000 461.920
26.46000 448.849
26.63000 432.490
26.80000 439.653
26.97000 432.947
27.14000 435.179
27.31000 432.067
27.48000 434.027
27.65000 437.310
27.82000 427.527
27.99000 424.296
28.16000 423.859
28.33000 419.758
28.50000 416.310
28.67000 402.885
28.84000 398.495
29.01000 403.168
29.18000 419.601
29.35000 403.425
29.52000 415.420
29.69000 407.364
29.86000 416.960
30.03000 428.918
30.20000 430.952
30.37000 413.062
30.54000 413.565
30.71000 432.369
30.88000 445.052
31.05000 589.270
31.22000 1513.999
31.39000 3039.305
31.56000 1758.426
31.73000 597.919
31.90000 433.797
32.07000 413.699
32.24000 395.257
32.41000 390.271
32.58000 379.625
32.75000 354.209
32.92000 355.899
33.09000 344.841
33.26000 339.535
33.43000 348.301
33.60000 334.734
33.77000 324.377
33.94000 321.723
34.11000 336.733
34.28000 347.078
34.45000 332.644
34.62000 316.353
34.79000 314.301
34.96000 327.659
35.13000 320.103
35.30000 298.074
35.47000 306.135
35.64000 300.876
35.81000 292.668
35.98000 299.172
36.15000 302.607
36.32000 281.160
36.49000 277.561
36.66000 266.366
36.83000 307.313
37.00000 289.962
37.17000 293.115
37.34000 290.636
37.51000 278.354
37.68000 291.962
37.85000 272.114
38.02000 293.097
38.19000 309.716
38.36000 333.996
38.53000 524.763
38.70000 986.970
38.87000 810.536
39.04000 367.093
39.21000 278.816
39.38000 290.752
39.55000 260.077
39.72000 254.711
39.89000 262.691
40.06000 253.619
40.23000 247.941
40.40000 258.732
40.57000 234.882
40.74000 254.978
40.91000 235.889
41.08000 252.789
41.25000 233.534
41.42000 240.720
41.59000 237.967
41.76000 233.783
41.93000 239.149
42.10000 214.743
42.27000 223.712
42.44000 238.635
42.61000 220.497
42.78000 222.447
42.95000 225.497
43.12000 222.012
43.29000 229.325
43.46000 216.473
43.63000 219.711
43.80000 222.184
43.97000 216.804
44.14000 214.681
44.31000 207.520
44.48000 229.136
44.65000 228.093
44.82000 236.538
44.99000 270.766
45.16000 297.514
45.33000 273.848
45.50000 234.857
45.67000 208.853
45.84000 208.460
46.01000 204.979
46.18000 208.321
46.35000 200.241
46.52000 208.478
46.69000 195.545
46.86000 204.428
47.03000 202.553
47.20000 193.515
47.37000 189.088
47.54000 184.064
47.71000 185.483
47.88000 189.063
48.05000 178.997
48.22000 174.820
48.39000 178.097
48.56000 178.957
48.73000 169.277
48.90000 174.271
49.07000 188.621
49.24000 191.776
49.41000 177.976
49.58000 178.387
49.75000 168.667
49.92000 175.967
50.09000 176.776
50.26000 172.923
50.43000 195.304
50.60000 226.174
50.77000 226.021
50.94000 212.661
51.11000 170.985
51.28000 158.813
51.45000 153.400
51.62000 151.640
51.79000 161.048
51.96000 151.677
52.13000 158.183
52.30000 158.770
52.47000 147.548
52.64000 158.089
52.81000 153.069
52.98000 159.116
53.15000 160.030
53.32000 158.578
53.49000 154.856
53.66000 155.465
53.83000 164.867
54.00000 143.262
54.17000 163.087
54.34000 148.278
54.51000 144.009
54.68000 159.268
54.85000 153.055
55.02000 160.192
55.19000 148.281
55.36000 166.043
55.53000 184.916
55.70000 288.853
55.87000 549.460
56.04000 593.035
56.21000 352.341
56.38000 199.371
56.55000 169.890
56.72000 146.755
56.89000 152.480
57.06000 140.490
57.23000 148.800
57.40000 145.726
57.57000 142.053
57.74000 143.982
57.91000 144.299
58.08000 130.754
58.25000 147.116
58.42000 147.396
58.59000 136.866
58.76000 136.140
58.93000 137.856
59.10000 134.015
59.27000 136.143
59.44000 124.883
59.61000 138.435
59.78000 135.258
59.95000 132.192
60.12000 127.882
60.29000 132.934
60.46000 122.140
60.63000 127.919
60.80000 126.548
60.97000 133.960
61.14000 138.454
61.31000 133.818
61.48000 124.186
61.65000 248.505
61.82000 189.913
61.99000 141.099
62.16000 135.077
62.33000 131.882
62.50000 138.747
62.67000 138.092
62.84000 145.867
63.01000 149.932
63.18000 141.902
63.35000 137.282
63.52000 145.623
63.69000 145.717
63.86000 152.876
64.03000 157.222
64.20000 153.812
64.37000 162.123
64.54000 163.046
64.71000 174.455
64.88000 181.124
65.05000 186.642
65.22000 224.441
65.39000 292.258
65.56000 384.087
65.73000 581.674
65.90000 927.431
66.07000 337.711
66.24000 277.693
66.41000 364.886
66.58000 305.329
66.75000 284.057
66.92000 312.752
67.09000 326.270
67.26000 348.552
67.43000 366.373
67.60000 398.652
67.77000 418.876
67.94000 475.325
68.11000 530.849
68.28000 575.968
68.45000 670.369
68.62000 916.716
68.79000 1627.048
68.96000 10034.330
69.13000 48586.492
69.30000 29233.596
69.47000 6860.224
69.64000 1135.586
69.81000 765.151
69.98000 648.021
70.00000 643.029

File: BTO_Mapping_Theta2Theta_09-17-2025_001_29_45-000_15-000.xy
20.00000 576.894
20.17000 570.258
20.34000 553.788
20.51000 579.548
20.68000 556.565
20.85000 578.769
21.02000 555.921
21.19000 559.393
21.36000 533.501
21.53000 555.328
21.70000 525.909
21.87000 547.287
22.04000 563.371
22.21000 540.829
22.38000 536.758
22.55000 492.374
22.72000 509.277
22.89000 508.271
23.06000 515.764
23.23000 518.594
23.40000 520.523
23.57000 491.825
23.74000 494.358
23.91000 500.495
24.08000 486.161
24.25000 496.285
24.42000 487.225
24.59000 468.734
24.76000 469.228
24.93000 477.984
25.10000 462.251
25.27000 460.828
25.44000 456.581
25.61000 460.891
25.78000 451.793
25.95000 436.181
26.12000 463.165
26.29000 460.729
26.46000 443.092
26.63000 432.954
26.80000 441.741
26.97000 445.687
27.14000 406.295
27.31000 430.876
27.48000 438.067
27.65000 408.542
27.82000 410.310
27.99000 420.764
28.16000 399.499
28.33000 417.721
28.50000 399.221
28.67000 407.530
28.84000 388.634
29.01000 386.599
29.18000 400.008
29.35000 403.597
29.52000 394.899
29.69000 385.004
29.86000 375.823
30.03000 389.904
30.20000 387.138
30.37000 370.325
30.54000 375.259
30.71000 368.839
30.88000 379.478
31.05000 403.374
31.22000 432.955
31.39000 431.520
31.56000 391.863
31.73000 383.010
31.90000 368.427
32.07000 342.648
32.24000 348.271
32.41000 345.621
32.58000 340.397
32.75000 332.746
32.92000 333.114
33.09000 326.410
33.26000 330.735
33.43000 334.731
33.60000 331.465
33.77000 317.156
33.94000 326.870
34.11000 315.196
34.28000 307.313
34.45000 313.884
34.62000 300.469
34.79000 304.271
34.96000 323.056
35.13000 306.657
35.30000 307.248
35.47000 309.230
35.64000 312.087
35.81000 294.521
35.98000 283.999
36.15000 301.540
36.32000 289.652
36.49000 287.489
36.66000 279.856
36.83000 292.692
37.00000 276.462
37.17000 285.036
37.34000 276.830
37.51000 271.511
37.68000 272.913
37.85000 275.100
38.02000 278.712
38.19000 258.953
38.36000 271.458
38.53000 279.319
38.70000 277.938
38.87000 270.243
39.04000 249.614
39.21000 253.510
39.38000 239.263
39.55000 241.897
39.72000 250.796
39.89000 250.448
40.06000 250.657
40.23000 248.971
40.40000 235.191
40.57000 237.103
40.74000 239.911
40.91000 236.564
41.08000 243.154
41.25000 234.409
41.42000 236.591
41.59000 233.558
41.76000 222.568
41.93000 236.331
42.10000 225.029
42.27000 225.025
42.44000 211.316
42.61000 224.932
42.78000 218.014
42.95000 225.416
43.12000 221.264
43.29000 206.882
43.46000 212.672
43.63000 211.393
43.80000 219.215
43.97000 199.336
44.14000 221.318
44.31000 221.282
44.48000 204.907
44.65000 199.210
44.82000 203.562
44.99000 209.432
45.16000 204.516
45.33000 203.145
45.50000 192.624
45.67000 198.266
45.84000 189.447
46.01000 187.541
46.18000 189.612
46.35000 184.384
46.52000 181.672
46.69000 184.389
46.86000 186.291
47.03000 181.279
47.20000 176.793
47.37000 185.275
47.54000 179.262
47.71000 190.286
47.88000 183.469
48.05000 179.386
48.22000 182.592
48.39000 175.652
48.56000 173.390
48.73000 171.120
48.90000 187.665
49.07000 167.717
49.24000 168.402
49.41000 169.089
49.58000 170.720
49.75000 172.017
49.92000 175.046
50.09000 169.439
50.26000 161.103
50.43000 172.101
50.60000 155.731
50.77000 164.099
50.94000 161.034
51.11000 158.024
51.28000 162.842
51.45000 162.948
51.62000 153.654
51.79000 159.562
51.96000 169.769
52.13000 154.938
52.30000 158.682
52.47000 160.157
52.64000 148.246
52.81000 151.748
52.98000 144.066
53.15000 163.081
53.32000 152.051
53.49000 150.198
53.66000 150.532
53.83000 156.221
54.00000 152.035
54.17000 133.588
54.34000 143.012
54.51000 142.225
54.68000 150.734
54.85000 154.881
55.02000 145.773
55.19000 141.862
55.36000 141.321
55.53000 138.171
55.70000 140.101
55.87000 140.389
56.04000 145.987
56.21000 134.019
56.38000 145.379
56.55000 132.733
56.72000 143.140
56.89000 148.520
57.06000 124.882
57.23000 129.376
57.40000 135.537
57.57000 136.817
57.74000 140.420
57.91000 132.196
58.08000 135.278
58.25000 132.335
58.42000 119.793
58.59000 128.298
58.76000 139.684
58.93000 119.523
59.10000 133.758
59.27000 129.608
59.44000 129.192
59.61000 125.743
59.78000 132.606
59.95000 125.845
60.12000 139.388
60.29000 137.237
60.46000 121.734
60.63000 137.902
60.80000 120.725
60.97000 132.807
61.14000 145.343
61.31000 128.221
61.48000 141.388
61.65000 238.552
61.82000 213.313
61.99000 143.187
62.16000 133.101
62.33000 128.162
62.50000 144.728
62.67000 138.257
62.84000 140.833
63.01000 145.591
63.18000 154.021
63.35000 141.548
63.52000 149.764
63.69000 156.215
63.86000 158.419
64.03000 156.957
64.20000 159.640
64.37000 163.659
64.54000 170.287
64.71000 162.721
64.88000 170.336
65.05000 188.277
65.22000 191.552
65.39000 201.055
65.56000 226.044
65.73000 456.615
65.90000 896.695
66.07000 363.871
66.24000 288.099
66.41000 434.830
66.58000 349.436
66.75000 316.292
66.92000 316.325
67.09000 353.789
67.26000 398.262
67.43000 421.515
67.60000 437.926
67.77000 475.731
67.94000 529.145
68.11000 595.468
68.28000 658.110
68.45000 749.120
68.62000 993.008
68.79000 1820.475
68.96000 9357.770
69.13000 55298.320
69.30000 34455.898
69.47000 9237.529
69.64000 1341.052
69.81000 881.291
69.98000 703.074
70.00000 682.120

File: BTO_Mapping_Theta2Theta_09-17-2025_001_34_30-000_30-000.xy
20.00000 563.635
20.17000 555.949
20.34000 573.307
20.51000 533.289
20.68000 549.901
20.85000 552.062
21.02000 544.813
21.19000 543.664
21.36000 524.672
21.53000 541.918
21.70000 537.888
21.87000 588.581
22.04000 675.639
22.21000 633.502
22.38000 570.838
22.55000 526.347
22.72000 514.788
22.89000 490.203
23.06000 500.380
23.23000 519.695
23.40000 512.506
23.57000 512.136
23.74000 521.290
23.91000 532.703
24.08000 537.571
24.25000 520.679
24.42000 498.671
24.59000 473.451
24.76000 487.025
24.93000 471.900
25.10000 468.803
25.27000 476.307
25.44000 466.853
25.61000 444.356
25.78000 449.231
25.95000 457.622
26.12000 445.634
26.29000 445.590
26.46000 442.678
26.63000 453.235
26.80000 445.260
26.97000 419.101
27.14000 439.061
27.31000 434.812
27.48000 434.223
27.65000 404.778
27.82000 421.918
27.99000 431.163
28.16000 443.037
28.33000 418.085
28.50000 417.746
28.67000 403.770
28.84000 424.541
29.01000 416.765
29.18000 389.436
29.35000 399.391
29.52000 399.519
29.69000 391.802
29.86000 401.688
30.03000 410.476
30.20000 408.433
30.37000 385.627
30.54000 425.995
30.71000 408.341
30.88000 429.314
31.05000 502.794
31.22000 991.435
31.39000 1701.048
31.56000 1107.411
31.73000 541.494
31.90000 409.621
32.07000 392.116
32.24000 395.286
32.41000 369.222
32.58000 378.036
32.75000 364.762
32.92000 356.364
33.09000 367.110
33.26000 331.285
33.43000 341.896
33.60000 344.743
33.77000 340.138
33.94000 337.634
34.11000 343.524
34.28000 352.556
34.45000 364.985
34.62000 346.724
34.79000 323.044
34.96000 308.651
35.13000 320.436
35.30000 306.332
35.47000 302.924
35.64000 300.994
35.81000 304.042
35.98000 277.033
36.15000 302.353
36.32000 301.087
36.49000 300.349
36.66000 283.854
36.83000 292.215
37.00000 304.742
37.17000 291.230
37.34000 281.538
37.51000 268.384
37.68000 284.849
37.85000 285.099
38.02000 293.993
38.19000 289.428
38.36000 306.208
38.53000 460.057
38.70000 894.776
38.87000 736.751
39.04000 357.177
39.21000 291.223
39.38000 264.726
39.55000 278.525
39.72000 288.753
39.89000 271.444
40.06000 258.136
40.23000 255.199
40.40000 258.486
40.57000 260.804
40.74000 243.201
40.91000 244.428
41.08000 236.220
41.25000 236.425
41.42000 226.587
41.59000 240.390
41.76000 236.710
41.93000 244.034
42.10000 226.532
42.27000 246.077
42.44000 244.870
42.61000 231.378
42.78000 234.103
42.95000 228.587
43.12000 223.475
43.29000 228.748
43.46000 216.637
43.63000 238.368
43.80000 231.059
43.97000 222.014
44.14000 223.687
44.31000 228.908
44.48000 220.911
44.65000 232.219
44.82000 269.775
44.99000 310.599
45.16000 329.120
45.33000 287.985
45.50000 240.437
45.67000 223.176
45.84000 217.572
46.01000 207.459
46.18000 193.239
46.35000 208.387
46.52000 192.904
46.69000 193.884
46.86000 207.765
47.03000 190.681
47.20000 195.965
47.37000 177.581
47.54000 193.373
47.71000 172.407
47.88000 192.345
48.05000 190.463
48.22000 172.092
48.39000 182.671
48.56000 178.525
48.73000 169.483
48.90000 177.237
49.07000 173.209
49.24000 178.617
49.41000 174.462
49.58000 178.484
49.75000 171.784
49.92000 163.115
50.09000 176.183
50.26000 170.865
50.43000 176.730
50.60000 198.710
50.77000 228.277
50.94000 196.349
51.11000 170.953
51.28000 159.215
51.45000 166.407
51.62000 158.426
51.79000 153.181
51.96000 158.747
52.13000 166.549
52.30000 153.700
52.47000 149.616
52.64000 152.870
52.81000 155.519
52.98000 153.624
53.15000 160.951
53.32000 163.017
53.49000 155.286
53.66000 165.597
53.83000 170.599
54.00000 147.140
54.17000 162.046
54.34000 152.898
54.51000 142.083
54.68000 159.667
54.85000 156.859
55.02000 149.830
55.19000 160.891
55.36000 173.362
55.53000 191.077
55.70000 280.326
55.87000 475.506
56.04000 514.774
56.21000 338.404
56.38000 199.450
56.55000 164.662
56.72000 135.075
56.89000 155.390
57.06000 141.203
57.23000 137.018
57.40000 152.165
57.57000 135.021
57.74000 135.671
57.91000 146.632
58.08000 148.019
58.25000 136.617
58.42000 146.769
58.59000 134.106
58.76000 132.910
58.93000 131.084
59.10000 139.658
59.27000 120.934
59.44000 131.704
59.61000 129.047
59.78000 133.918
59.95000 125.761
60.12000 133.911
60.29000 123.088
60.46000 138.566
60.63000 133.797
60.80000 134.084
60.97000 131.213
61.14000 128.164
61.31000 146.621
61.48000 137.503
61.65000 242.348
61.82000 190.705
61.99000 137.151
62.16000 135.468
62.33000 144.592
62.50000 148.227
62.67000 142.275
62.84000 140.494
63.01000 138.691
63.18000 131.774
63.35000 142.572
63.52000 143.084
63.69000 149.223
63.86000 156.304
64.03000 159.766
64.20000 158.835
64.37000 164.220
64.54000 167.211
64.71000 165.747
64.88000 171.055
65.05000 187.638
65.22000 197.773
65.39000 248.984
65.56000 300.767
65.73000 485.864
65.90000 853.337
66.07000 336.472
66.24000 277.502
66.41000 369.173
66.58000 317.686
66.75000 292.893
66.92000 296.243
67.09000 339.946
67.26000 352.157
67.43000 379.976
67.60000 401.705
67.77000 428.717
67.94000 481.126
68.11000 531.799
68.28000 583.260
68.45000 671.980
68.62000 913.659
68.79000 1628.828
68.96000 8548.143
69.13000 49236.547
69.30000 30549.771
69.47000 8147.611
69.64000 1190.120
69.81000 782.412
69.98000 685.666
70.00000 665.728

File: BTO_Mapping_Theta2Theta_09-17-2025_001_36_0-000_45-000.xy
20.00000 546.251
20.17000 546.161
20.34000 548.199
20.51000 537.874
20.68000 545.949
20.85000 560.036
21.02000 546.566
21.19000 551.307
21.36000 541.242
21.53000 555.411
21.70000 530.024
21.87000 587.954
22.04000 618.170
22.21000 578.446
22.38000 540.429
22.55000 552.597
22.72000 513.124
22.89000 521.353
23.06000 498.121
23.23000 509.585
23.40000 494.320
23.57000 500.646
23.74000 503.824
23.91000 517.487
24.08000 507.423
24.25000 493.183
24.42000 468.074
24.59000 480.730
24.76000 472.039
24.93000 465.701
25.10000 473.479
25.27000 466.826
25.44000 470.224
25.61000 456.735
25.78000 459.793
25.95000 465.947
26.12000 450.517
26.29000 451.150
26.46000 460.901
26.63000 429.896
26.80000 444.829
26.97000 444.923
27.14000 439.009
27.31000 421.363
27.48000 435.767
27.65000 428.773
27.82000 429.841
27.99000 435.463
28.16000 422.459
28.33000 414.284
28.50000 440.623
28.67000 417.812
28.84000 408.217
29.01000 417.606
29.18000 423.716
29.35000 399.193
29.52000 402.458
29.69000 410.757
29.86000 422.642
30.03000 401.546
30.20000 410.868
30.37000 399.091
30.54000 414.691
30.71000 420.326
30.88000 449.534
31.05000 545.841
31.22000 956.348
31.39000 1132.432
31.56000 780.142
31.73000 485.444
31.90000 414.893
32.07000 379.419
32.24000 369.875
32.41000 373.340
32.58000 356.155
32.75000 355.277
32.92000 359.333
33.09000 348.624
33.26000 331.400
33.43000 332.666
33.60000 325.710
33.77000 336.036
33.94000 317.634
34.11000 319.576
34.28000 333.165
34.45000 339.419
34.62000 327.064
34.79000 318.835
34.96000 304.689
35.13000 309.887
35.30000 298.345
35.47000 308.162
35.64000 296.830
35.81000 296.490
35.98000 302.490
36.15000 298.188
36.32000 300.359
36.49000 296.107
36.66000 278.633
36.83000 289.450
37.00000 294.111
37.17000 285.380
37.34000 283.275
37.51000 277.797
37.68000 280.791
37.85000 277.741
38.02000 288.287
38.19000 290.605
38.36000 332.541
38.53000 380.339
38.70000 453.882
38.87000 392.845
39.04000 293.571
39.21000 259.314
39.38000 247.057
39.55000 255.286
39.72000 259.758
39.89000 251.699
40.06000 260.498
40.23000 257.508
40.40000 243.736
40.57000 250.799
40.74000 258.819
40.91000 257.449
41.08000 238.789
41.25000 238.720
41.42000 240.879
41.59000 239.245
41.76000 228.750
41.93000 231.983
42.10000 240.269
42.27000 228.148
42.44000 236.536
42.61000 237.382
42.78000 223.605
42.95000 221.617
43.12000 224.369
43.29000 233.542
43.46000 223.723
43.63000 231.298
43.80000 225.168
43.97000 217.484
44.14000 228.462
44.31000 228.413
44.48000 234.770
44.65000 235.857
44.82000 252.749
44.99000 277.812
45.16000 258.331
45.33000 245.006
45.50000 237.311
45.67000 226.369
45.84000 201.373
46.01000 202.669
46.18000 197.367
46.35000 199.462
46.52000 190.279
46.69000 193.182
46.86000 188.741
47.03000 187.427
47.20000 199.481
47.37000 183.334
47.54000 187.153
47.71000 176.219
47.88000 185.565
48.05000 182.959
48.22000 179.383
48.39000 176.823
48.56000 184.910
48.73000 183.878
48.90000 178.680
49.07000 166.641
49.24000 181.270
49.41000 183.756
49.58000 172.705
49.75000 178.169
49.92000 166.763
50.09000 175.450
50.26000 173.735
50.43000 187.694
50.60000 198.790
50.77000 197.623
50.94000 176.856
51.11000 171.744
51.28000 158.455
51.45000 155.693
51.62000 161.139
51.79000 170.655
51.96000 149.167
52.13000 158.373
52.30000 165.328
52.47000 155.090
52.64000 157.500
52.81000 152.530
52.98000 157.984
53.15000 153.196
53.32000 149.977
53.49000 159.641
53.66000 160.717
53.83000 160.224
54.00000 152.415
54.17000 152.181
54.34000 148.876
54.51000 144.972
54.68000 154.994
54.85000 156.929
55.02000 158.335
55.19000 166.582
55.36000 175.943
55.53000 196.447
55.70000 236.135
55.87000 277.474
56.04000 237.625
56.21000 187.833
56.38000 165.184
56.55000 151.395
56.72000 144.265
56.89000 143.672
57.06000 140.895
57.23000 148.398
57.40000 145.408
57.57000 139.640
57.74000 153.552
57.91000 124.422
58.08000 136.884
58.25000 135.475
58.42000 136.835
58.59000 136.824
58.76000 138.336
58.93000 132.489
59.10000 132.227
59.27000 130.079
59.44000 130.455
59.61000 126.292
59.78000 126.980
59.95000 137.988
60.12000 133.130
60.29000 129.072
60.46000 141.528
60.63000 135.504
60.80000 120.488
60.97000 134.680
61.14000 133.956
61.31000 132.985
61.48000 151.117
61.65000 247.058
61.82000 207.947
61.99000 144.912
62.16000 143.274
62.33000 135.698
62.50000 135.202
62.67000 141.321
62.84000 139.138
63.01000 147.516
63.18000 144.416
63.35000 152.285
63.52000 157.094
63.69000 156.861
63.86000 161.661
64.03000 160.834
64.20000 162.705
64.37000 173.247
64.54000 164.017
64.71000 169.622
64.88000 186.763
65.05000 190.098
65.22000 211.597
65.39000 231.339
65.56000 254.451
65.73000 486.606
65.90000 919.484
66.07000 355.033
66.24000 307.626
66.41000 407.728
66.58000 342.050
66.75000 328.816
66.92000 336.441
67.09000 352.147
67.26000 377.021
67.43000 406.274
67.60000 447.301
67.77000 475.240
67.94000 512.922
68.11000 569.904
68.28000 653.956
68.45000 727.761
68.62000 1017.861
68.79000 1799.325
68.96000 10743.050
69.13000 54669.039
69.30000 33129.668
69.47000 8269.211
69.64000 1278.144
69.81000 875.325
69.98000 687.140
70.00000 664.975

File: BTO_Mapping_Theta2Theta_09-17-2025_001_37_15-000_45-000.xy
20.00000 557.204
20.17000 561.095
20.34000 538.446
20.51000 551.039
20.68000 526.345
20.85000 533.424
21.02000 528.108
21.19000 529.357
21.36000 537.061
21.53000 549.314
21.70000 489.096
21.87000 512.212
22.04000 505.947
22.21000 513.350
22.38000 505.590
22.55000 508.591
22.72000 513.755
22.89000 511.791
23.06000 495.525
23.23000 489.823
23.40000 503.123
23.57000 468.751
23.74000 492.980
23.91000 487.627
24.08000 469.853
24.25000 494.746
24.42000 467.295
24.59000 452.229
24.76000 468.430
24.93000 466.583
25.10000 439.592
25.27000 461.996
25.44000 452.468
25.61000 447.988
25.78000 445.574
25.95000 457.696
26.12000 428.049
26.29000 443.689
26.46000 424.105
26.63000 439.225
26.80000 432.206
26.97000 430.186
27.14000 439.372
27.31000 420.340
27.48000 426.154
27.65000 422.679
27.82000 397.823
27.99000 397.628
28.16000 394.400
28.33000 399.370
28.50000 399.347
28.67000 395.812
28.84000 377.919
29.01000 403.180
29.18000 389.045
29.35000 389.348
29.52000 395.546
29.69000 374.876
29.86000 381.037
30.03000 380.665
30.20000 370.670
30.37000 359.228
30.54000 372.503
30.71000 363.664
30.88000 369.013
31.05000 338.261
31.22000 366.968
31.39000 349.013
31.56000 344.764
31.73000 347.505
31.90000 348.938
32.07000 348.459
32.24000 334.433
32.41000 347.634
32.58000 338.529
32.75000 337.696
32.92000 317.254
33.09000 334.324
33.26000 332.481
33.43000 328.915
33.60000 317.918
33.77000 326.369
33.94000 323.876
34.11000 315.600
34.28000 321.064
34.45000 302.290
34.62000 310.603
34.79000 307.353
34.96000 304.853
35.13000 298.388
35.30000 300.872
35.47000 310.723
35.64000 296.960
35.81000 297.575
35.98000 297.968
36.15000 288.429
36.32000 301.801
36.49000 293.083
36.66000 282.476
36.83000 284.115
37.00000 278.594
37.17000 276.662
37.34000 277.599
37.51000 260.275
37.68000 252.211
37.85000 259.869
38.02000 259.097
38.19000 265.832
38.36000 269.331
38.53000 273.493
38.70000 275.385
38.87000 270.304
39.04000 248.297
39.21000 253.832
39.38000 250.391
39.55000 265.890
39.72000 262.275
39.89000 253.179
40.06000 254.319
40.23000 243.349
40.40000 249.980
40.57000 230.807
40.74000 228.097
40.91000 251.520
41.08000 234.482
41.25000 220.383
41.42000 219.649
41.59000 234.396
41.76000 230.057
41.93000 237.974
42.10000 235.908
42.27000 215.492
42.44000 237.317
42.61000 228.024
42.78000 211.117
42.95000 216.762
43.12000 214.986
43.29000 216.067
43.46000 212.146
43.63000 209.695
43.80000 212.348
43.97000 208.493
44.14000 219.016
44.31000 195.342
44.48000 211.785
44.65000 189.881
44.82000 209.107
44.99000 195.932
45.16000 198.268
45.33000 186.428
45.50000 210.796
45.67000 190.136
45.84000 193.776
46.01000 188.795
46.18000 188.214
46.35000 188.702
46.52000 191.782
46.69000 182.338
46.86000 189.692
47.03000 188.005
47.20000 194.122
47.37000 169.715
47.54000 187.818
47.71000 191.332
47.88000 178.373
48.05000 186.242
48.22000 182.444
48.39000 182.916
48.56000 177.436
48.73000 185.243
48.90000 164.043
49.07000 172.435
49.24000 166.086
49.41000 173.285
49.58000 171.822
49.75000 171.511
49.92000 156.818
50.09000 160.759
50.26000 171.780
50.43000 169.548
50.60000 158.337
50.77000 174.349
50.94000 162.052
51.11000 163.122
51.28000 167.711
51.45000 158.494
51.62000 164.262
51.79000 161.828
51.96000 164.748
52.13000 164.197
52.30000 161.685
52.47000 149.777
52.64000 147.379
52.81000 160.655
52.98000 154.260
53.15000 154.353
53.32000 153.188
53.49000 147.236
53.66000 156.887
53.83000 145.326
54.00000 147.783
54.17000 138.312
54.34000 147.575
54.51000 141.360
54.68000 146.459
54.85000 144.175
55.02000 144.524
55.19000 146.537
55.36000 146.528
55.53000 131.022
55.70000 138.455
55.87000 141.279
56.04000 139.102
56.21000 133.788
56.38000 142.539
56.55000 141.784
56.72000 144.054
56.89000 132.034
57.06000 130.912
57.23000 128.577
57.40000 134.621
57.57000 136.485
57.74000 133.595
57.91000 134.162
58.08000 130.907
58.25000 136.621
58.42000 135.109
58.59000 142.946
58.76000 133.426
58.93000 133.845
59.10000 136.340
59.27000 125.917
59.44000 123.737
59.61000 141.265
59.78000 132.461
59.95000 128.496
60.12000 143.044
60.29000 140.555
60.46000 133.799
60.63000 130.333
60.80000 130.545
60.97000 133.938
61.14000 130.973
61.31000 130.042
61.48000 141.047
61.65000 244.480
61.82000 197.150
61.99000 139.353
62.16000 130.598
62.33000 145.102
62.50000 154.086
62.67000 141.942
62.84000 144.026
63.01000 145.197
63.18000 148.497
63.35000 145.533
63.52000 156.905
63.69000 157.027
63.86000 146.359
64.03000 142.676
64.20000 170.476
64.37000 161.820
64.54000 163.041
64.71000 183.049
64.88000 164.252
65.05000 184.591
65.22000 183.915
65.39000 204.304
65.56000 231.420
65.73000 472.552
65.90000 918.117
66.07000 351.716
66.24000 293.664
66.41000 425.625
66.58000 346.264
66.75000 315.838
66.92000 356.218
67.09000 361.782
67.26000 396.812
67.43000 405.164
67.60000 451.502
67.77000 473.504
67.94000 534.985
68.11000 607.445
68.28000 662.174
68.45000 752.134
68.62000 1005.032
68.79000 1857.848
68.96000 9820.615
69.13000 55486.035
69.30000 34503.531
69.47000 8927.707
69.64000 1306.315
69.81000 862.521
69.98000 711.344
70.00000 686.612