Folder: Master-Thesis/XRD/07-10-2025 Dep 6/XY Data (part 5)

File: BTO_Mapping_Theta2Theta_07-10-2025_001_60_27-406_-12-202.xy
20.00000 472.431
20.17000 477.329
20.34000 466.912
20.51000 452.601
20.68000 448.832
20.85000 453.884
21.02000 462.471
21.19000 468.834
21.36000 459.271
21.53000 489.010
21.70000 462.490
21.87000 476.521
22.04000 484.992
22.21000 492.895
22.38000 472.950
22.55000 449.265
22.72000 456.724
22.89000 427.895
23.06000 441.016
23.23000 442.992
23.40000 424.379
23.57000 442.253
23.74000 468.075
23.91000 482.405
24.08000 502.168
24.25000 454.617
24.42000 426.730
24.59000 428.403
24.76000 420.556
24.93000 411.949
25.10000 406.742
25.27000 408.764
25.44000 415.109
25.61000 402.086
25.78000 388.707
25.95000 404.627
26.12000 392.704
26.29000 378.067
26.46000 373.333
26.63000 378.036
26.80000 378.553
26.97000 387.477
27.14000 361.602
27.31000 386.556
27.48000 364.538
27.65000 369.551
27.82000 376.160
27.99000 358.856
28.16000 353.967
28.33000 379.835
28.50000 353.519
28.67000 367.561
28.84000 359.847
29.01000 349.578
29.18000 374.320
29.35000 362.939
29.52000 345.851
29.69000 364.212
29.86000 365.999
30.03000 375.297
30.20000 356.223
30.37000 367.125
30.54000 390.611
30.71000 365.067
30.88000 424.070
31.05000 493.489
31.22000 774.368
31.39000 965.710
31.56000 712.203
31.73000 470.394
31.90000 372.853
32.07000 372.820
32.24000 339.346
32.41000 338.407
32.58000 323.102
32.75000 335.620
32.92000 503.327
33.09000 439.663
33.26000 305.490
33.43000 302.407
33.60000 287.586
33.77000 299.227
33.94000 306.863
34.11000 314.374
34.28000 310.596
34.45000 283.107
34.62000 297.330
34.79000 283.963
34.96000 276.914
35.13000 273.838
35.30000 281.131
35.47000 271.182
35.64000 260.607
35.81000 249.374
35.98000 266.998
36.15000 257.352
36.32000 247.488
36.49000 249.647
36.66000 265.968
36.83000 268.344
37.00000 259.095
37.17000 252.692
37.34000 256.204
37.51000 248.611
37.68000 250.236
37.85000 268.924
38.02000 264.893
38.19000 263.850
38.36000 298.682
38.53000 446.002
38.70000 654.869
38.87000 463.857
39.04000 284.963
39.21000 231.307
39.38000 241.306
39.55000 245.889
39.72000 224.038
39.89000 244.682
40.06000 218.787
40.23000 221.524
40.40000 223.851
40.57000 226.183
40.74000 218.743
40.91000 218.927
41.08000 224.620
41.25000 208.468
41.42000 208.301
41.59000 203.045
41.76000 199.614
41.93000 208.435
42.10000 215.737
42.27000 218.055
42.44000 214.286
42.61000 225.654
42.78000 198.827
42.95000 195.982
43.12000 200.307
43.29000 194.287
43.46000 195.001
43.63000 195.403
43.80000 186.621
43.97000 203.459
44.14000 182.502
44.31000 201.121
44.48000 214.495
44.65000 220.868
44.82000 211.636
44.99000 215.612
45.16000 219.437
45.33000 210.465
45.50000 205.452
45.67000 185.100
45.84000 185.446
46.01000 184.522
46.18000 185.556
46.35000 174.479
46.52000 182.921
46.69000 174.538
46.86000 169.371
47.03000 171.266
47.20000 166.806
47.37000 175.680
47.54000 148.738
47.71000 154.284
47.88000 161.395
48.05000 153.082
48.22000 161.577
48.39000 159.251
48.56000 155.682
48.73000 151.007
48.90000 168.192
49.07000 159.124
49.24000 150.010
49.41000 160.129
49.58000 151.527
49.75000 157.815
49.92000 144.053
50.09000 158.457
50.26000 161.685
50.43000 161.991
50.60000 163.874
50.77000 168.580
50.94000 157.742
51.11000 158.476
51.28000 144.432
51.45000 152.305
51.62000 153.157
51.79000 141.121
51.96000 137.803
52.13000 134.575
52.30000 144.756
52.47000 139.282
52.64000 138.474
52.81000 134.459
52.98000 142.689
53.15000 143.113
53.32000 146.645
53.49000 131.868
53.66000 146.764
53.83000 141.566
54.00000 136.011
54.17000 133.671
54.34000 146.146
54.51000 137.580
54.68000 141.426
54.85000 131.641
55.02000 146.336
55.19000 149.878
55.36000 142.057
55.53000 186.079
55.70000 238.276
55.87000 291.340
56.04000 290.828
56.21000 230.649
56.38000 179.351
56.55000 154.903
56.72000 142.235
56.89000 127.582
57.06000 132.896
57.23000 123.631
57.40000 118.472
57.57000 123.404
57.74000 123.881
57.91000 118.113
58.08000 128.044
58.25000 125.495
58.42000 122.989
58.59000 113.735
58.76000 115.588
58.93000 109.899
59.10000 119.602
59.27000 106.375
59.44000 111.877
59.61000 119.564
59.78000 123.943
59.95000 112.243
60.12000 116.879
60.29000 124.676
60.46000 122.558
60.63000 113.391
60.80000 120.297
60.97000 113.865
61.14000 125.953
61.31000 116.601
61.48000 141.699
61.65000 279.147
61.82000 201.213
61.99000 134.844
62.16000 124.933
62.33000 126.126
62.50000 127.104
62.67000 127.964
62.84000 134.620
63.01000 132.564
63.18000 136.605
63.35000 126.119
63.52000 143.288
63.69000 144.307
63.86000 143.735
64.03000 143.547
64.20000 147.765
64.37000 164.421
64.54000 154.129
64.71000 173.701
64.88000 196.299
65.05000 194.966
65.22000 229.294
65.39000 254.287
65.56000 317.245
65.73000 946.411
65.90000 1977.601
66.07000 523.669
66.24000 392.922
66.41000 639.420
66.58000 436.319
66.75000 361.446
66.92000 389.176
67.09000 395.660
67.26000 389.128
67.43000 418.008
67.60000 446.726
67.77000 491.227
67.94000 494.432
68.11000 538.406
68.28000 569.790
68.45000 657.149
68.62000 892.115
68.79000 1611.101
68.96000 8491.689
69.13000 44358.801
69.30000 24842.158
69.47000 6410.021
69.64000 936.784
69.81000 614.102
69.98000 517.840
70.00000 506.807

File: BTO_Mapping_Theta2Theta_07-10-2025_001_61_36-542_-16-269.xy
20.00000 473.026
20.17000 493.962
20.34000 488.633
20.51000 466.985
20.68000 445.170
20.85000 466.389
21.02000 461.362
21.19000 471.014
21.36000 470.048
21.53000 443.517
21.70000 472.820
21.87000 472.412
22.04000 489.636
22.21000 482.432
22.38000 465.198
22.55000 434.346
22.72000 437.786
22.89000 438.295
23.06000 420.113
23.23000 433.896
23.40000 426.283
23.57000 441.756
23.74000 451.414
23.91000 490.382
24.08000 505.013
24.25000 452.666
24.42000 412.940
24.59000 412.832
24.76000 414.935
24.93000 413.970
25.10000 401.767
25.27000 406.326
25.44000 405.352
25.61000 402.428
25.78000 394.640
25.95000 379.855
26.12000 382.330
26.29000 379.594
26.46000 399.604
26.63000 384.461
26.80000 386.623
26.97000 385.601
27.14000 387.887
27.31000 369.888
27.48000 369.862
27.65000 400.593
27.82000 383.560
27.99000 382.135
28.16000 369.385
28.33000 354.983
28.50000 367.617
28.67000 366.479
28.84000 383.380
29.01000 364.103
29.18000 363.790
29.35000 343.141
29.52000 359.122
29.69000 354.698
29.86000 371.107
30.03000 374.560
30.20000 379.228
30.37000 381.968
30.54000 375.819
30.71000 389.671
30.88000 415.505
31.05000 501.860
31.22000 748.906
31.39000 924.907
31.56000 702.522
31.73000 478.296
31.90000 400.714
32.07000 380.024
32.24000 345.133
32.41000 342.101
32.58000 309.468
32.75000 315.125
32.92000 514.822
33.09000 418.025
33.26000 298.703
33.43000 303.791
33.60000 288.085
33.77000 291.482
33.94000 318.012
34.11000 298.018
34.28000 305.553
34.45000 309.984
34.62000 285.244
34.79000 262.339
34.96000 265.806
35.13000 269.157
35.30000 267.911
35.47000 267.749
35.64000 253.585
35.81000 264.512
35.98000 258.254
36.15000 261.363
36.32000 258.553
36.49000 258.860
36.66000 261.217
36.83000 265.239
37.00000 251.813
37.17000 262.226
37.34000 263.278
37.51000 250.228
37.68000 259.507
37.85000 236.832
38.02000 251.233
38.19000 275.425
38.36000 306.759
38.53000 422.300
38.70000 553.376
38.87000 413.399
39.04000 268.388
39.21000 236.191
39.38000 231.537
39.55000 233.255
39.72000 240.691
39.89000 220.680
40.06000 226.574
40.23000 235.765
40.40000 215.304
40.57000 222.036
40.74000 209.719
40.91000 219.706
41.08000 215.467
41.25000 211.795
41.42000 204.939
41.59000 213.784
41.76000 214.644
41.93000 204.618
42.10000 213.507
42.27000 217.421
42.44000 211.147
42.61000 199.994
42.78000 213.662
42.95000 192.781
43.12000 202.948
43.29000 202.186
43.46000 187.674
43.63000 192.283
43.80000 193.658
43.97000 183.555
44.14000 182.375
44.31000 189.912
44.48000 191.181
44.65000 210.992
44.82000 213.836
44.99000 217.749
45.16000 221.452
45.33000 227.892
45.50000 207.349
45.67000 183.381
45.84000 192.078
46.01000 173.092
46.18000 177.056
46.35000 168.888
46.52000 167.527
46.69000 167.157
46.86000 166.796
47.03000 165.858
47.20000 169.033
47.37000 173.159
47.54000 175.733
47.71000 164.084
47.88000 161.303
48.05000 162.796
48.22000 162.018
48.39000 166.640
48.56000 155.333
48.73000 152.370
48.90000 140.307
49.07000 155.668
49.24000 156.773
49.41000 159.999
49.58000 150.475
49.75000 155.660
49.92000 156.912
50.09000 147.114
50.26000 155.277
50.43000 154.801
50.60000 166.941
50.77000 161.950
50.94000 159.208
51.11000 160.804
51.28000 143.147
51.45000 146.933
51.62000 148.719
51.79000 150.598
51.96000 135.372
52.13000 141.586
52.30000 138.962
52.47000 148.602
52.64000 135.257
52.81000 143.039
52.98000 142.720
53.15000 140.113
53.32000 141.336
53.49000 135.512
53.66000 138.204
53.83000 140.247
54.00000 132.717
54.17000 142.825
54.34000 132.758
54.51000 144.946
54.68000 145.253
54.85000 151.959
55.02000 149.173
55.19000 150.023
55.36000 158.115
55.53000 172.204
55.70000 212.745
55.87000 235.999
56.04000 237.216
56.21000 209.294
56.38000 162.044
56.55000 151.099
56.72000 135.061
56.89000 128.954
57.06000 130.466
57.23000 120.871
57.40000 137.567
57.57000 124.401
57.74000 129.460
57.91000 115.323
58.08000 122.970
58.25000 126.665
58.42000 123.172
58.59000 120.817
58.76000 114.295
58.93000 133.865
59.10000 129.747
59.27000 125.580
59.44000 116.362
59.61000 108.323
59.78000 110.336
59.95000 116.341
60.12000 125.876
60.29000 112.896
60.46000 110.458
60.63000 121.787
60.80000 115.942
60.97000 122.238
61.14000 126.907
61.31000 125.457
61.48000 136.066
61.65000 290.461
61.82000 213.858
61.99000 131.235
62.16000 129.773
62.33000 116.090
62.50000 131.409
62.67000 130.408
62.84000 127.558
63.01000 137.793
63.18000 130.311
63.35000 137.095
63.52000 141.314
63.69000 140.274
63.86000 147.664
64.03000 149.804
64.20000 145.667
64.37000 155.930
64.54000 161.083
64.71000 173.857
64.88000 173.842
65.05000 193.171
65.22000 229.886
65.39000 245.369
65.56000 306.201
65.73000 961.402
65.90000 2005.929
66.07000 537.803
66.24000 406.018
66.41000 631.652
66.58000 446.841
66.75000 355.859
66.92000 378.776
67.09000 387.996
67.26000 391.585
67.43000 439.335
67.60000 444.488
67.77000 480.256
67.94000 493.098
68.11000 530.877
68.28000 583.680
68.45000 646.800
68.62000 895.893
68.79000 1602.597
68.96000 8310.481
69.13000 45003.160
69.30000 25446.119
69.47000 6713.018
69.64000 963.665
69.81000 643.080
69.98000 519.274
70.00000 503.647