Folder: Master-Thesis/XRD/07-10-2025 Dep 6/XY Data

File: BTO_fwhm_results.csv
X Coordinates,Y Coordinates,FWHM
-39.126,-8.316,0.363809
-39.126,8.316,0.359412
-32.361,-23.511,0.358692
-32.361,23.511,0.358202
-29.344,-6.237,0.357936
-29.344,6.237,0.361661
-24.271,-17.634,0.356811
-24.271,17.634,0.343364
-20.0,-34.641,0.354419
-20.0,34.641,0.375451
-19.563,-4.158,0.348399
-19.563,4.158,0.350694
-16.18,-11.756,0.355525
-16.18,11.756,0.353843
-15.0,-25.981,0.3625
-15.0,25.981,0.363048
-10.0,-17.321,0.36849
-10.0,17.321,0.386936
-9.781,-2.079,0.369533
-9.781,2.079,0.362096
-8.09,-5.878,0.349606
-8.09,5.878,0.367245
-5.0,-8.66,0.362631
-5.0,8.66,0.383099
-4.181,-39.781,0.36795
-4.181,39.781,0.365426
-3.136,-29.836,0.359378
-3.136,29.836,0.369551
-2.091,-19.89,0.374325
-2.091,19.89,0.372293
-1.045,-9.945,0.371718
-1.045,9.945,0.36477
0.0,0.0,0.374895
3.09,-9.511,0.367614
3.09,9.511,0.383308
6.18,-19.021,0.396162
6.18,19.021,0.393374
6.691,-7.431,0.38266
6.691,7.431,0.393364
9.135,-4.067,0.387347
9.135,4.067,0.382872
9.271,-28.532,0.391626
9.271,28.532,0.401775
10.0,0.0,0.392636
12.361,-38.042,0.396391
12.361,38.042,0.400977
13.383,-14.863,0.390664
13.383,14.863,0.410931
18.271,-8.135,0.394475
18.271,8.135,0.408146
20.0,0.0,0.399107
20.074,-22.294,0.394939
20.074,22.294,0.41732
26.765,-29.726,0.398514
26.765,29.726,0.401469
27.406,-12.202,0.419526
27.406,12.202,0.401709
30.0,0.0,0.425187
36.542,-16.269,0.39823
36.542,16.269,0.425609
40.0,0.0,0.42945

File: BTO_Mapping_Theta2Theta_07-10-2025_001_04_30-000_0-000.xy
20.00000 477.828
20.17000 459.239
20.34000 475.715
20.51000 470.173
20.68000 462.814
20.85000 453.182
21.02000 487.186
21.19000 471.639
21.36000 452.066
21.53000 499.029
21.70000 491.400
21.87000 481.636
22.04000 496.503
22.21000 493.909
22.38000 461.641
22.55000 448.338
22.72000 441.123
22.89000 431.295
23.06000 428.068
23.23000 431.479
23.40000 433.660
23.57000 455.898
23.74000 461.944
23.91000 507.622
24.08000 500.447
24.25000 452.366
24.42000 422.218
24.59000 401.364
24.76000 410.071
24.93000 421.402
25.10000 402.564
25.27000 389.654
25.44000 389.024
25.61000 386.884
25.78000 400.421
25.95000 403.360
26.12000 378.566
26.29000 375.812
26.46000 374.874
26.63000 371.477
26.80000 405.814
26.97000 382.662
27.14000 359.495
27.31000 373.421
27.48000 381.762
27.65000 380.121
27.82000 365.130
27.99000 375.597
28.16000 357.693
28.33000 355.939
28.50000 377.161
28.67000 356.666
28.84000 363.855
29.01000 364.266
29.18000 358.252
29.35000 376.208
29.52000 364.366
29.69000 361.547
29.86000 382.145
30.03000 377.304
30.20000 381.636
30.37000 363.898
30.54000 370.138
30.71000 382.570
30.88000 393.756
31.05000 495.170
31.22000 728.037
31.39000 910.945
31.56000 697.142
31.73000 461.428
31.90000 404.669
32.07000 361.974
32.24000 346.318
32.41000 350.530
32.58000 318.130
32.75000 325.818
32.92000 525.728
33.09000 434.383
33.26000 303.395
33.43000 290.021
33.60000 296.271
33.77000 298.119
33.94000 294.013
34.11000 305.590
34.28000 309.051
34.45000 302.770
34.62000 300.855
34.79000 312.983
34.96000 259.310
35.13000 262.816
35.30000 270.488
35.47000 258.201
35.64000 255.145
35.81000 248.941
35.98000 258.612
36.15000 259.858
36.32000 271.218
36.49000 250.121
36.66000 251.374
36.83000 255.482
37.00000 255.919
37.17000 255.516
37.34000 261.146
37.51000 252.229
37.68000 252.789
37.85000 261.671
38.02000 250.007
38.19000 258.560
38.36000 292.203
38.53000 414.557
38.70000 575.344
38.87000 422.105
39.04000 285.190
39.21000 261.174
39.38000 244.497
39.55000 239.915
39.72000 231.844
39.89000 238.562
40.06000 228.056
40.23000 223.875
40.40000 211.728
40.57000 221.951
40.74000 216.731
40.91000 226.358
41.08000 216.145
41.25000 211.149
41.42000 209.693
41.59000 203.348
41.76000 211.415
41.93000 203.151
42.10000 212.955
42.27000 206.141
42.44000 212.802
42.61000 214.409
42.78000 206.701
42.95000 213.407
43.12000 192.110
43.29000 193.087
43.46000 190.141
43.63000 198.159
43.80000 195.097
43.97000 189.766
44.14000 212.270
44.31000 188.184
44.48000 187.872
44.65000 210.384
44.82000 211.804
44.99000 229.864
45.16000 205.514
45.33000 209.175
45.50000 194.237
45.67000 196.925
45.84000 176.232
46.01000 170.113
46.18000 178.100
46.35000 186.421
46.52000 175.055
46.69000 179.375
46.86000 171.300
47.03000 149.543
47.20000 167.172
47.37000 170.887
47.54000 171.329
47.71000 157.003
47.88000 165.902
48.05000 161.270
48.22000 164.241
48.39000 174.700
48.56000 162.195
48.73000 162.135
48.90000 142.689
49.07000 160.224
49.24000 159.812
49.41000 160.277
49.58000 159.225
49.75000 146.469
49.92000 158.315
50.09000 156.348
50.26000 165.430
50.43000 166.128
50.60000 166.483
50.77000 171.102
50.94000 164.068
51.11000 151.268
51.28000 142.474
51.45000 139.739
51.62000 130.256
51.79000 136.668
51.96000 137.983
52.13000 145.385
52.30000 139.308
52.47000 135.306
52.64000 133.337
52.81000 142.974
52.98000 132.199
53.15000 149.945
53.32000 151.375
53.49000 139.635
53.66000 142.622
53.83000 131.183
54.00000 135.455
54.17000 131.977
54.34000 133.651
54.51000 139.820
54.68000 138.106
54.85000 133.227
55.02000 146.746
55.19000 143.790
55.36000 150.861
55.53000 177.910
55.70000 210.817
55.87000 252.351
56.04000 262.238
56.21000 215.410
56.38000 172.025
56.55000 143.567
56.72000 137.186
56.89000 138.858
57.06000 137.564
57.23000 119.188
57.40000 124.197
57.57000 131.546
57.74000 126.530
57.91000 125.162
58.08000 122.572
58.25000 121.135
58.42000 123.458
58.59000 119.930
58.76000 119.934
58.93000 120.733
59.10000 115.791
59.27000 117.339
59.44000 117.537
59.61000 127.223
59.78000 115.391
59.95000 117.471
60.12000 119.428
60.29000 118.648
60.46000 109.837
60.63000 114.491
60.80000 126.735
60.97000 113.910
61.14000 116.673
61.31000 124.258
61.48000 131.353
61.65000 267.521
61.82000 215.680
61.99000 143.433
62.16000 132.638
62.33000 123.980
62.50000 132.795
62.67000 124.295
62.84000 133.625
63.01000 132.071
63.18000 137.111
63.35000 131.465
63.52000 138.911
63.69000 141.658
63.86000 144.527
64.03000 143.744
64.20000 153.202
64.37000 151.526
64.54000 168.556
64.71000 170.073
64.88000 181.610
65.05000 195.463
65.22000 208.601
65.39000 246.251
65.56000 306.600
65.73000 977.095
65.90000 2007.311
66.07000 540.960
66.24000 417.888
66.41000 620.309
66.58000 418.182
66.75000 355.103
66.92000 352.093
67.09000 389.154
67.26000 407.312
67.43000 406.215
67.60000 452.634
67.77000 481.334
67.94000 477.369
68.11000 549.737
68.28000 592.355
68.45000 678.633
68.62000 898.247
68.79000 1623.662
68.96000 8553.082
69.13000 45086.203
69.30000 25353.262
69.47000 6594.284
69.64000 931.319
69.81000 641.068
69.98000 493.978
70.00000 490.284

File: BTO_Mapping_Theta2Theta_07-10-2025_001_10_6-691_7-431.xy
20.00000 479.703
20.17000 474.176
20.34000 453.995
20.51000 483.231
20.68000 462.074
20.85000 442.815
21.02000 447.120
21.19000 448.715
21.36000 449.913
21.53000 447.150
21.70000 455.506
21.87000 480.526
22.04000 484.676
22.21000 489.217
22.38000 473.319
22.55000 454.384
22.72000 461.902
22.89000 451.207
23.06000 447.196
23.23000 430.494
23.40000 410.903
23.57000 428.501
23.74000 457.726
23.91000 464.910
24.08000 481.819
24.25000 459.345
24.42000 434.117
24.59000 412.665
24.76000 412.194
24.93000 404.667
25.10000 390.100
25.27000 399.867
25.44000 403.228
25.61000 386.781
25.78000 387.269
25.95000 392.394
26.12000 376.356
26.29000 382.616
26.46000 371.429
26.63000 375.319
26.80000 373.764
26.97000 365.438
27.14000 370.676
27.31000 380.512
27.48000 359.856
27.65000 377.516
27.82000 389.905
27.99000 352.654
28.16000 364.939
28.33000 355.929
28.50000 348.940
28.67000 354.523
28.84000 361.924
29.01000 355.616
29.18000 357.814
29.35000 353.123
29.52000 340.045
29.69000 353.999
29.86000 369.751
30.03000 380.026
30.20000 377.879
30.37000 369.398
30.54000 359.674
30.71000 369.889
30.88000 384.439
31.05000 492.403
31.22000 850.991
31.39000 1196.015
31.56000 861.907
31.73000 497.864
31.90000 382.609
32.07000 347.503
32.24000 340.902
32.41000 347.878
32.58000 323.323
32.75000 309.388
32.92000 497.907
33.09000 423.416
33.26000 287.540
33.43000 299.555
33.60000 288.576
33.77000 292.585
33.94000 325.429
34.11000 312.977
34.28000 335.537
34.45000 338.504
34.62000 301.921
34.79000 283.487
34.96000 271.896
35.13000 280.656
35.30000 271.392
35.47000 265.335
35.64000 252.665
35.81000 264.663
35.98000 264.769
36.15000 265.211
36.32000 253.839
36.49000 244.525
36.66000 255.662
36.83000 244.523
37.00000 258.798
37.17000 255.762
37.34000 247.003
37.51000 246.880
37.68000 247.496
37.85000 252.935
38.02000 237.204
38.19000 239.050
38.36000 273.385
38.53000 464.729
38.70000 823.073
38.87000 590.567
39.04000 299.637
39.21000 246.840
39.38000 223.074
39.55000 230.386
39.72000 224.319
39.89000 227.599
40.06000 219.646
40.23000 220.903
40.40000 217.616
40.57000 213.232
40.74000 206.952
40.91000 202.261
41.08000 198.286
41.25000 200.935
41.42000 207.524
41.59000 214.466
41.76000 212.746
41.93000 211.915
42.10000 216.363
42.27000 212.856
42.44000 213.162
42.61000 205.476
42.78000 212.240
42.95000 200.613
43.12000 187.897
43.29000 182.296
43.46000 196.323
43.63000 199.779
43.80000 178.396
43.97000 183.838
44.14000 188.588
44.31000 197.107
44.48000 201.844
44.65000 213.157
44.82000 221.456
44.99000 223.821
45.16000 211.612
45.33000 216.223
45.50000 192.062
45.67000 182.283
45.84000 177.198
46.01000 180.525
46.18000 166.417
46.35000 177.687
46.52000 172.043
46.69000 167.645
46.86000 163.534
47.03000 181.168
47.20000 163.875
47.37000 171.121
47.54000 156.022
47.71000 164.138
47.88000 161.055
48.05000 155.641
48.22000 152.575
48.39000 152.545
48.56000 155.015
48.73000 169.370
48.90000 156.255
49.07000 152.276
49.24000 157.611
49.41000 167.019
49.58000 149.448
49.75000 153.496
49.92000 144.246
50.09000 151.890
50.26000 150.960
50.43000 150.642
50.60000 157.112
50.77000 164.527
50.94000 153.306
51.11000 145.763
51.28000 143.793
51.45000 143.104
51.62000 130.779
51.79000 148.833
51.96000 133.199
52.13000 137.469
52.30000 139.901
52.47000 142.150
52.64000 138.648
52.81000 132.406
52.98000 138.208
53.15000 148.189
53.32000 147.562
53.49000 150.463
53.66000 155.386
53.83000 136.092
54.00000 135.691
54.17000 138.424
54.34000 137.156
54.51000 132.656
54.68000 121.998
54.85000 137.082
55.02000 141.686
55.19000 151.596
55.36000 162.455
55.53000 183.492
55.70000 277.955
55.87000 433.133
56.04000 428.616
56.21000 288.557
56.38000 191.660
56.55000 155.590
56.72000 133.394
56.89000 136.868
57.06000 120.712
57.23000 126.994
57.40000 129.171
57.57000 123.141
57.74000 123.371
57.91000 117.494
58.08000 122.482
58.25000 129.594
58.42000 118.356
58.59000 118.553
58.76000 123.765
58.93000 123.391
59.10000 121.465
59.27000 116.276
59.44000 116.815
59.61000 117.106
59.78000 118.798
59.95000 115.979
60.12000 116.086
60.29000 126.288
60.46000 121.774
60.63000 115.263
60.80000 112.787
60.97000 125.568
61.14000 130.117
61.31000 124.319
61.48000 135.742
61.65000 290.581
61.82000 202.425
61.99000 127.855
62.16000 123.504
62.33000 125.743
62.50000 123.380
62.67000 122.904
62.84000 131.039
63.01000 134.804
63.18000 124.493
63.35000 134.977
63.52000 132.411
63.69000 142.851
63.86000 124.533
64.03000 144.233
64.20000 151.678
64.37000 154.078
64.54000 165.783
64.71000 168.008
64.88000 175.297
65.05000 196.862
65.22000 224.763
65.39000 250.046
65.56000 324.583
65.73000 979.409
65.90000 1912.202
66.07000 506.772
66.24000 384.946
66.41000 589.280
66.58000 410.334
66.75000 349.489
66.92000 356.751
67.09000 380.357
67.26000 394.451
67.43000 412.030
67.60000 437.115
67.77000 479.571
67.94000 497.269
68.11000 513.091
68.28000 547.568
68.45000 657.628
68.62000 881.763
68.79000 1553.754
68.96000 8912.277
69.13000 43768.152
69.30000 24018.361
69.47000 5915.258
69.64000 933.728
69.81000 630.097
69.98000 498.787
70.00000 493.652

File: BTO_Mapping_Theta2Theta_07-10-2025_001_13_26-765_29-726.xy
20.00000 457.715
20.17000 464.880
20.34000 462.774
20.51000 469.594
20.68000 471.422
20.85000 476.492
21.02000 449.738
21.19000 469.661
21.36000 460.081
21.53000 474.210
21.70000 461.273
21.87000 476.003
22.04000 480.907
22.21000 490.587
22.38000 471.978
22.55000 445.501
22.72000 453.703
22.89000 443.521
23.06000 448.433
23.23000 444.819
23.40000 440.973
23.57000 443.853
23.74000 467.729
23.91000 487.663
24.08000 482.617
24.25000 456.887
24.42000 438.077
24.59000 432.750
24.76000 422.408
24.93000 423.774
25.10000 405.442
25.27000 389.384
25.44000 396.768
25.61000 387.299
25.78000 382.591
25.95000 417.899
26.12000 395.169
26.29000 381.052
26.46000 386.148
26.63000 387.259
26.80000 392.295
26.97000 389.606
27.14000 362.080
27.31000 374.652
27.48000 367.933
27.65000 371.243
27.82000 373.498
27.99000 374.349
28.16000 369.360
28.33000 354.567
28.50000 368.636
28.67000 381.688
28.84000 370.760
29.01000 361.726
29.18000 383.890
29.35000 367.735
29.52000 364.168
29.69000 375.243
29.86000 377.923
30.03000 362.353
30.20000 371.318
30.37000 361.945
30.54000 342.436
30.71000 381.564
30.88000 390.126
31.05000 476.123
31.22000 685.624
31.39000 886.426
31.56000 675.494
31.73000 461.520
31.90000 398.464
32.07000 367.642
32.24000 339.203
32.41000 332.181
32.58000 302.201
32.75000 310.135
32.92000 504.336
33.09000 433.315
33.26000 295.669
33.43000 286.294
33.60000 289.422
33.77000 292.652
33.94000 300.883
34.11000 295.413
34.28000 307.765
34.45000 298.478
34.62000 293.668
34.79000 279.238
34.96000 285.182
35.13000 276.695
35.30000 260.937
35.47000 272.521
35.64000 263.840
35.81000 255.678
35.98000 256.431
36.15000 247.722
36.32000 251.212
36.49000 266.502
36.66000 256.141
36.83000 265.249
37.00000 239.520
37.17000 250.578
37.34000 241.453
37.51000 252.107
37.68000 232.942
37.85000 243.714
38.02000 246.334
38.19000 252.481
38.36000 276.007
38.53000 369.698
38.70000 498.668
38.87000 393.282
39.04000 277.030
39.21000 249.248
39.38000 232.272
39.55000 244.474
39.72000 229.704
39.89000 231.903
40.06000 222.588
40.23000 224.484
40.40000 217.952
40.57000 225.327
40.74000 203.575
40.91000 215.188
41.08000 208.041
41.25000 212.755
41.42000 203.585
41.59000 208.960
41.76000 198.500
41.93000 211.140
42.10000 206.658
42.27000 217.341
42.44000 214.466
42.61000 219.687
42.78000 198.659
42.95000 204.204
43.12000 195.559
43.29000 184.839
43.46000 204.791
43.63000 192.241
43.80000 205.258
43.97000 193.877
44.14000 179.448
44.31000 193.441
44.48000 189.225
44.65000 201.675
44.82000 208.470
44.99000 212.213
45.16000 215.473
45.33000 200.639
45.50000 203.807
45.67000 192.855
45.84000 181.795
46.01000 173.997
46.18000 162.695
46.35000 182.863
46.52000 175.921
46.69000 174.521
46.86000 172.075
47.03000 153.630
47.20000 169.505
47.37000 159.774
47.54000 161.267
47.71000 157.854
47.88000 156.549
48.05000 169.488
48.22000 164.285
48.39000 159.586
48.56000 157.388
48.73000 157.744
48.90000 151.774
49.07000 153.955
49.24000 150.801
49.41000 153.913
49.58000 148.525
49.75000 144.994
49.92000 143.519
50.09000 157.558
50.26000 155.222
50.43000 156.615
50.60000 163.466
50.77000 160.085
50.94000 151.887
51.11000 149.669
51.28000 147.183
51.45000 141.080
51.62000 143.844
51.79000 144.847
51.96000 137.298
52.13000 142.214
52.30000 140.923
52.47000 140.662
52.64000 146.415
52.81000 139.270
52.98000 153.115
53.15000 140.902
53.32000 143.560
53.49000 141.606
53.66000 141.899
53.83000 136.132
54.00000 135.285
54.17000 143.068
54.34000 129.764
54.51000 133.157
54.68000 139.845
54.85000 137.771
55.02000 140.114
55.19000 136.209
55.36000 146.100
55.53000 169.655
55.70000 187.450
55.87000 224.953
56.04000 235.663
56.21000 181.986
56.38000 167.156
56.55000 141.758
56.72000 119.458
56.89000 124.303
57.06000 122.882
57.23000 123.604
57.40000 124.203
57.57000 128.192
57.74000 130.566
57.91000 128.895
58.08000 119.419
58.25000 119.824
58.42000 117.409
58.59000 119.902
58.76000 118.078
58.93000 120.194
59.10000 125.127
59.27000 119.426
59.44000 112.309
59.61000 115.454
59.78000 118.406
59.95000 120.424
60.12000 125.223
60.29000 113.764
60.46000 118.450
60.63000 123.429
60.80000 121.440
60.97000 118.033
61.14000 122.817
61.31000 123.779
61.48000 130.569
61.65000 274.098
61.82000 208.724
61.99000 131.293
62.16000 141.267
62.33000 129.860
62.50000 124.699
62.67000 127.780
62.84000 132.377
63.01000 130.668
63.18000 130.650
63.35000 139.421
63.52000 131.818
63.69000 139.526
63.86000 137.613
64.03000 149.392
64.20000 140.506
64.37000 162.155
64.54000 172.947
64.71000 177.802
64.88000 174.373
65.05000 194.201
65.22000 212.500
65.39000 245.329
65.56000 297.327
65.73000 1002.496
65.90000 2037.065
66.07000 539.494
66.24000 408.271
66.41000 646.995
66.58000 419.759
66.75000 367.610
66.92000 370.524
67.09000 392.477
67.26000 413.016
67.43000 430.210
67.60000 429.035
67.77000 478.772
67.94000 507.908
68.11000 528.409
68.28000 619.409
68.45000 668.230
68.62000 907.636
68.79000 1642.142
68.96000 8647.395
69.13000 45791.570
69.30000 25730.533
69.47000 6757.304
69.64000 988.146
69.81000 628.395
69.98000 514.726
70.00000 512.930

File: BTO_Mapping_Theta2Theta_07-10-2025_001_15_6-180_19-021.xy
20.00000 467.179
20.17000 468.749
20.34000 464.399
20.51000 448.238
20.68000 461.407
20.85000 464.315
21.02000 452.698
21.19000 466.301
21.36000 466.310
21.53000 448.881
21.70000 475.716
21.87000 502.423
22.04000 507.750
22.21000 488.650
22.38000 460.223
22.55000 444.309
22.72000 450.984
22.89000 464.175
23.06000 442.657
23.23000 439.521
23.40000 434.516
23.57000 433.097
23.74000 441.714
23.91000 488.939
24.08000 504.139
24.25000 450.339
24.42000 425.611
24.59000 404.917
24.76000 394.440
24.93000 409.127
25.10000 400.851
25.27000 410.959
25.44000 396.294
25.61000 389.535
25.78000 357.709
25.95000 390.072
26.12000 394.062
26.29000 377.064
26.46000 394.903
26.63000 388.914
26.80000 373.017
26.97000 369.913
27.14000 366.366
27.31000 377.635
27.48000 359.768
27.65000 364.488
27.82000 354.347
27.99000 370.627
28.16000 372.625
28.33000 367.430
28.50000 344.089
28.67000 350.983
28.84000 352.819
29.01000 347.017
29.18000 343.143
29.35000 357.652
29.52000 352.913
29.69000 347.457
29.86000 362.810
30.03000 376.107
30.20000 372.260
30.37000 383.417
30.54000 371.685
30.71000 364.243
30.88000 407.351
31.05000 483.801
31.22000 825.072
31.39000 1158.853
31.56000 833.036
31.73000 455.917
31.90000 388.049
32.07000 329.694
32.24000 350.023
32.41000 333.838
32.58000 314.079
32.75000 317.884
32.92000 523.249
33.09000 433.766
33.26000 312.352
33.43000 305.763
33.60000 295.839
33.77000 289.838
33.94000 304.085
34.11000 314.233
34.28000 332.129
34.45000 324.753
34.62000 308.586
34.79000 278.031
34.96000 264.860
35.13000 265.228
35.30000 265.136
35.47000 265.844
35.64000 264.623
35.81000 257.344
35.98000 250.799
36.15000 243.262
36.32000 258.938
36.49000 264.149
36.66000 261.950
36.83000 263.174
37.00000 262.844
37.17000 264.273
37.34000 246.753
37.51000 244.906
37.68000 245.647
37.85000 251.948
38.02000 263.613
38.19000 253.139
38.36000 286.272
38.53000 464.328
38.70000 758.634
38.87000 551.306
39.04000 297.645
39.21000 239.084
39.38000 235.624
39.55000 238.379
39.72000 231.926
39.89000 226.470
40.06000 217.712
40.23000 226.636
40.40000 214.254
40.57000 222.724
40.74000 227.860
40.91000 218.202
41.08000 217.651
41.25000 216.179
41.42000 198.811
41.59000 211.909
41.76000 204.327
41.93000 213.762
42.10000 217.716
42.27000 228.658
42.44000 219.695
42.61000 210.854
42.78000 199.316
42.95000 202.531
43.12000 200.825
43.29000 186.357
43.46000 186.282
43.63000 196.606
43.80000 201.586
43.97000 198.448
44.14000 189.190
44.31000 198.194
44.48000 205.352
44.65000 220.844
44.82000 217.118
44.99000 215.442
45.16000 221.074
45.33000 203.791
45.50000 200.660
45.67000 177.142
45.84000 180.488
46.01000 181.297
46.18000 177.107
46.35000 168.109
46.52000 171.193
46.69000 170.733
46.86000 171.126
47.03000 173.961
47.20000 160.563
47.37000 163.178
47.54000 162.977
47.71000 163.734
47.88000 170.332
48.05000 156.406
48.22000 148.356
48.39000 160.609
48.56000 154.906
48.73000 162.230
48.90000 157.148
49.07000 148.654
49.24000 144.132
49.41000 153.081
49.58000 145.984
49.75000 155.941
49.92000 144.980
50.09000 135.430
50.26000 151.751
50.43000 170.421
50.60000 162.584
50.77000 152.665
50.94000 153.860
51.11000 155.561
51.28000 149.209
51.45000 142.068
51.62000 143.918
51.79000 150.569
51.96000 143.900
52.13000 132.443
52.30000 139.058
52.47000 141.033
52.64000 134.893
52.81000 138.403
52.98000 133.559
53.15000 138.451
53.32000 138.046
53.49000 148.130
53.66000 145.280
53.83000 135.776
54.00000 145.776
54.17000 137.696
54.34000 144.572
54.51000 139.000
54.68000 135.916
54.85000 142.200
55.02000 142.669
55.19000 140.936
55.36000 155.153
55.53000 188.361
55.70000 255.176
55.87000 359.303
56.04000 374.244
56.21000 277.405
56.38000 183.966
56.55000 166.558
56.72000 142.776
56.89000 141.781
57.06000 132.880
57.23000 125.246
57.40000 107.791
57.57000 134.994
57.74000 136.020
57.91000 130.025
58.08000 131.058
58.25000 124.299
58.42000 118.799
58.59000 125.932
58.76000 117.357
58.93000 122.240
59.10000 119.886
59.27000 125.773
59.44000 120.418
59.61000 115.927
59.78000 118.230
59.95000 118.623
60.12000 123.370
60.29000 120.795
60.46000 105.801
60.63000 114.994
60.80000 120.882
60.97000 122.939
61.14000 114.956
61.31000 123.893
61.48000 127.724
61.65000 282.862
61.82000 186.417
61.99000 133.039
62.16000 136.364
62.33000 124.836
62.50000 131.900
62.67000 133.183
62.84000 125.734
63.01000 122.505
63.18000 140.405
63.35000 133.139
63.52000 134.819
63.69000 134.085
63.86000 146.154
64.03000 156.764
64.20000 144.181
64.37000 148.561
64.54000 155.417
64.71000 171.166
64.88000 177.834
65.05000 191.392
65.22000 214.306
65.39000 253.423
65.56000 315.426
65.73000 1003.776
65.90000 1960.782
66.07000 501.913
66.24000 392.218
66.41000 634.692
66.58000 417.603
66.75000 357.812
66.92000 372.008
67.09000 372.285
67.26000 389.082
67.43000 410.145
67.60000 430.955
67.77000 443.578
67.94000 476.571
68.11000 501.789
68.28000 539.698
68.45000 652.128
68.62000 888.402
68.79000 1610.617
68.96000 8888.222
69.13000 44089.020
69.30000 24449.275
69.47000 6043.593
69.64000 917.647
69.81000 632.618
69.98000 510.095
70.00000 495.406