Folder: Master-Thesis/XRD/07-10-2025 Dep 6/XY Data (part 3)

File: BTO_Mapping_Theta2Theta_07-10-2025_001_31_-19-563_4-158.xy
20.00000 486.750
20.17000 462.903
20.34000 452.801
20.51000 463.122
20.68000 462.916
20.85000 456.814
21.02000 450.340
21.19000 450.831
21.36000 444.130
21.53000 450.803
21.70000 457.156
21.87000 508.782
22.04000 555.963
22.21000 526.453
22.38000 503.536
22.55000 448.533
22.72000 442.845
22.89000 424.887
23.06000 439.174
23.23000 415.162
23.40000 424.875
23.57000 433.817
23.74000 451.492
23.91000 416.134
24.08000 425.006
24.25000 410.720
24.42000 411.956
24.59000 409.532
24.76000 412.060
24.93000 391.271
25.10000 389.893
25.27000 394.114
25.44000 386.453
25.61000 385.433
25.78000 375.757
25.95000 367.171
26.12000 377.969
26.29000 380.880
26.46000 366.615
26.63000 367.094
26.80000 371.361
26.97000 377.849
27.14000 374.197
27.31000 354.646
27.48000 360.775
27.65000 364.115
27.82000 372.823
27.99000 359.164
28.16000 351.275
28.33000 353.731
28.50000 356.465
28.67000 349.290
28.84000 345.814
29.01000 344.473
29.18000 349.361
29.35000 348.744
29.52000 348.072
29.69000 364.341
29.86000 393.358
30.03000 409.757
30.20000 376.440
30.37000 378.010
30.54000 356.597
30.71000 368.248
30.88000 423.303
31.05000 614.920
31.22000 1468.227
31.39000 2078.197
31.56000 1063.381
31.73000 473.925
31.90000 360.213
32.07000 353.119
32.24000 325.291
32.41000 329.168
32.58000 308.262
32.75000 319.144
32.92000 499.901
33.09000 419.190
33.26000 273.743
33.43000 283.854
33.60000 287.645
33.77000 300.378
33.94000 285.663
34.11000 317.695
34.28000 298.405
34.45000 290.490
34.62000 289.044
34.79000 267.163
34.96000 284.448
35.13000 280.418
35.30000 279.773
35.47000 259.939
35.64000 257.138
35.81000 263.079
35.98000 262.453
36.15000 252.580
36.32000 251.623
36.49000 255.387
36.66000 254.306
36.83000 258.965
37.00000 257.663
37.17000 273.143
37.34000 258.781
37.51000 252.878
37.68000 248.206
37.85000 257.726
38.02000 256.440
38.19000 273.865
38.36000 317.694
38.53000 627.489
38.70000 918.809
38.87000 635.743
39.04000 305.211
39.21000 238.447
39.38000 212.037
39.55000 236.042
39.72000 225.097
39.89000 217.994
40.06000 219.421
40.23000 209.622
40.40000 221.697
40.57000 219.580
40.74000 206.061
40.91000 209.028
41.08000 206.994
41.25000 209.139
41.42000 195.358
41.59000 197.709
41.76000 198.316
41.93000 197.391
42.10000 209.320
42.27000 195.024
42.44000 189.257
42.61000 197.063
42.78000 190.479
42.95000 188.939
43.12000 195.245
43.29000 186.464
43.46000 193.180
43.63000 184.528
43.80000 184.248
43.97000 193.891
44.14000 196.360
44.31000 204.870
44.48000 195.285
44.65000 216.065
44.82000 240.770
44.99000 283.629
45.16000 271.313
45.33000 244.166
45.50000 208.448
45.67000 196.500
45.84000 193.652
46.01000 190.151
46.18000 179.274
46.35000 179.924
46.52000 168.130
46.69000 165.175
46.86000 174.157
47.03000 161.249
47.20000 158.198
47.37000 155.889
47.54000 161.319
47.71000 161.210
47.88000 156.996
48.05000 161.582
48.22000 160.883
48.39000 162.097
48.56000 149.484
48.73000 153.235
48.90000 152.835
49.07000 157.213
49.24000 145.253
49.41000 155.492
49.58000 147.143
49.75000 160.500
49.92000 168.877
50.09000 145.236
50.26000 152.130
50.43000 187.007
50.60000 197.149
50.77000 190.443
50.94000 163.593
51.11000 153.001
51.28000 143.704
51.45000 136.466
51.62000 132.972
51.79000 137.072
51.96000 134.102
52.13000 133.239
52.30000 135.802
52.47000 134.381
52.64000 137.776
52.81000 140.277
52.98000 140.476
53.15000 142.073
53.32000 154.423
53.49000 150.174
53.66000 136.435
53.83000 131.373
54.00000 145.568
54.17000 135.255
54.34000 138.961
54.51000 131.410
54.68000 137.728
54.85000 137.244
55.02000 138.260
55.19000 148.707
55.36000 166.266
55.53000 237.057
55.70000 423.055
55.87000 553.928
56.04000 486.758
56.21000 286.444
56.38000 190.159
56.55000 159.310
56.72000 132.009
56.89000 135.551
57.06000 126.664
57.23000 122.760
57.40000 125.145
57.57000 120.376
57.74000 124.850
57.91000 110.273
58.08000 129.005
58.25000 120.698
58.42000 117.326
58.59000 110.929
58.76000 116.416
58.93000 121.922
59.10000 104.733
59.27000 111.265
59.44000 115.766
59.61000 112.756
59.78000 117.532
59.95000 118.276
60.12000 113.617
60.29000 117.301
60.46000 112.716
60.63000 115.287
60.80000 118.401
60.97000 115.804
61.14000 131.568
61.31000 112.653
61.48000 128.549
61.65000 291.162
61.82000 200.229
61.99000 121.419
62.16000 126.377
62.33000 131.867
62.50000 123.194
62.67000 121.416
62.84000 124.438
63.01000 135.950
63.18000 137.676
63.35000 142.570
63.52000 133.347
63.69000 138.209
63.86000 132.560
64.03000 150.901
64.20000 145.753
64.37000 152.816
64.54000 157.850
64.71000 170.343
64.88000 181.765
65.05000 204.064
65.22000 256.587
65.39000 303.627
65.56000 410.845
65.73000 1213.319
65.90000 2121.311
66.07000 515.074
66.24000 410.157
66.41000 669.505
66.58000 423.864
66.75000 377.990
66.92000 371.813
67.09000 384.586
67.26000 409.945
67.43000 424.900
67.60000 449.153
67.77000 464.410
67.94000 518.204
68.11000 551.589
68.28000 576.451
68.45000 656.654
68.62000 962.209
68.79000 1708.535
68.96000 11708.695
69.13000 48815.039
69.30000 25828.600
69.47000 5903.133
69.64000 947.128
69.81000 600.177
69.98000 514.182
70.00000 497.338

File: BTO_Mapping_Theta2Theta_07-10-2025_001_34_-9-781_-2-079.xy
20.00000 473.191
20.17000 490.117
20.34000 446.434
20.51000 476.830
20.68000 454.918
20.85000 460.480
21.02000 470.938
21.19000 441.258
21.36000 441.376
21.53000 449.609
21.70000 456.088
21.87000 493.715
22.04000 551.405
22.21000 517.057
22.38000 479.379
22.55000 447.135
22.72000 447.052
22.89000 444.524
23.06000 427.405
23.23000 423.661
23.40000 415.395
23.57000 424.247
23.74000 435.089
23.91000 476.398
24.08000 446.893
24.25000 423.689
24.42000 412.708
24.59000 399.044
24.76000 381.411
24.93000 406.666
25.10000 393.978
25.27000 393.833
25.44000 375.152
25.61000 386.800
25.78000 421.638
25.95000 375.933
26.12000 378.070
26.29000 377.919
26.46000 372.773
26.63000 378.189
26.80000 383.753
26.97000 370.133
27.14000 394.444
27.31000 368.990
27.48000 360.191
27.65000 378.033
27.82000 370.116
27.99000 355.325
28.16000 352.505
28.33000 371.571
28.50000 352.578
28.67000 357.756
28.84000 337.969
29.01000 338.663
29.18000 354.928
29.35000 361.056
29.52000 347.060
29.69000 346.832
29.86000 360.196
30.03000 376.783
30.20000 365.718
30.37000 350.507
30.54000 353.034
30.71000 359.755
30.88000 364.984
31.05000 524.324
31.22000 1037.090
31.39000 1381.559
31.56000 836.289
31.73000 433.104
31.90000 342.643
32.07000 327.196
32.24000 311.356
32.41000 320.686
32.58000 316.621
32.75000 300.756
32.92000 493.937
33.09000 410.401
33.26000 295.448
33.43000 283.069
33.60000 304.986
33.77000 306.724
33.94000 298.181
34.11000 311.103
34.28000 325.518
34.45000 324.222
34.62000 303.833
34.79000 285.854
34.96000 271.870
35.13000 271.930
35.30000 269.583
35.47000 271.171
35.64000 252.461
35.81000 275.029
35.98000 255.834
36.15000 264.801
36.32000 245.893
36.49000 245.622
36.66000 231.883
36.83000 266.242
37.00000 284.610
37.17000 255.792
37.34000 257.749
37.51000 257.861
37.68000 238.660
37.85000 243.596
38.02000 266.799
38.19000 263.052
38.36000 330.308
38.53000 629.022
38.70000 1042.770
38.87000 770.260
39.04000 321.181
39.21000 237.967
39.38000 219.530
39.55000 245.873
39.72000 223.553
39.89000 225.517
40.06000 225.823
40.23000 210.066
40.40000 216.913
40.57000 217.544
40.74000 215.086
40.91000 209.557
41.08000 204.100
41.25000 213.032
41.42000 210.429
41.59000 206.498
41.76000 208.615
41.93000 202.587
42.10000 208.863
42.27000 204.608
42.44000 208.479
42.61000 203.331
42.78000 189.311
42.95000 195.724
43.12000 195.657
43.29000 203.233
43.46000 198.164
43.63000 195.322
43.80000 184.942
43.97000 190.082
44.14000 198.864
44.31000 193.089
44.48000 198.990
44.65000 219.158
44.82000 227.154
44.99000 252.510
45.16000 247.017
45.33000 242.590
45.50000 193.618
45.67000 213.431
45.84000 192.473
46.01000 180.885
46.18000 170.652
46.35000 173.817
46.52000 175.327
46.69000 168.872
46.86000 171.082
47.03000 159.963
47.20000 160.912
47.37000 165.136
47.54000 165.913
47.71000 154.047
47.88000 167.254
48.05000 162.599
48.22000 159.338
48.39000 158.399
48.56000 158.308
48.73000 153.284
48.90000 151.788
49.07000 148.559
49.24000 149.538
49.41000 147.484
49.58000 140.586
49.75000 147.850
49.92000 157.341
50.09000 157.593
50.26000 158.178
50.43000 156.557
50.60000 179.168
50.77000 178.294
50.94000 162.040
51.11000 152.687
51.28000 148.156
51.45000 144.408
51.62000 126.597
51.79000 142.716
51.96000 148.755
52.13000 138.527
52.30000 137.977
52.47000 136.589
52.64000 133.508
52.81000 145.494
52.98000 136.131
53.15000 139.219
53.32000 155.400
53.49000 154.879
53.66000 142.685
53.83000 133.977
54.00000 131.800
54.17000 137.621
54.34000 153.654
54.51000 137.328
54.68000 158.588
54.85000 139.302
55.02000 154.397
55.19000 146.752
55.36000 165.266
55.53000 225.778
55.70000 376.447
55.87000 578.592
56.04000 539.632
56.21000 315.783
56.38000 186.679
56.55000 147.345
56.72000 130.809
56.89000 136.997
57.06000 128.514
57.23000 131.291
57.40000 130.823
57.57000 133.392
57.74000 124.247
57.91000 122.763
58.08000 123.512
58.25000 125.718
58.42000 117.582
58.59000 114.194
58.76000 108.764
58.93000 110.281
59.10000 107.890
59.27000 119.887
59.44000 115.510
59.61000 122.906
59.78000 119.778
59.95000 116.429
60.12000 111.308
60.29000 111.958
60.46000 109.694
60.63000 123.347
60.80000 121.597
60.97000 116.615
61.14000 121.219
61.31000 120.058
61.48000 134.265
61.65000 291.310
61.82000 187.018
61.99000 119.885
62.16000 121.533
62.33000 131.661
62.50000 120.422
62.67000 130.969
62.84000 120.339
63.01000 127.470
63.18000 132.008
63.35000 129.490
63.52000 123.332
63.69000 134.700
63.86000 136.569
64.03000 144.446
64.20000 153.733
64.37000 148.016
64.54000 155.823
64.71000 164.276
64.88000 181.074
65.05000 202.628
65.22000 237.418
65.39000 267.264
65.56000 343.636
65.73000 1071.657
65.90000 1982.063
66.07000 494.235
66.24000 380.776
66.41000 636.819
66.58000 400.225
66.75000 353.508
66.92000 349.809
67.09000 375.490
67.26000 385.127
67.43000 430.579
67.60000 421.792
67.77000 458.280
67.94000 493.675
68.11000 550.645
68.28000 562.549
68.45000 638.343
68.62000 892.519
68.79000 1617.736
68.96000 10274.429
69.13000 45831.129
69.30000 24604.947
69.47000 5799.049
69.64000 896.147
69.81000 605.017
69.98000 514.837
70.00000 501.734

File: BTO_Mapping_Theta2Theta_07-10-2025_001_38_-8-090_-5-878.xy
20.00000 479.785
20.17000 465.617
20.34000 478.898
20.51000 479.910
20.68000 473.102
20.85000 462.995
21.02000 471.489
21.19000 463.407
21.36000 420.851
21.53000 433.423
21.70000 466.745
21.87000 492.467
22.04000 546.177
22.21000 519.953
22.38000 483.902
22.55000 448.832
22.72000 449.858
22.89000 452.836
23.06000 432.116
23.23000 435.800
23.40000 417.747
23.57000 433.547
23.74000 443.332
23.91000 461.150
24.08000 479.531
24.25000 445.071
24.42000 418.226
24.59000 403.619
24.76000 417.547
24.93000 401.672
25.10000 396.366
25.27000 403.798
25.44000 373.735
25.61000 383.179
25.78000 373.527
25.95000 403.509
26.12000 385.458
26.29000 385.201
26.46000 391.934
26.63000 378.493
26.80000 372.716
26.97000 370.167
27.14000 358.594
27.31000 375.119
27.48000 366.596
27.65000 370.986
27.82000 342.118
27.99000 370.229
28.16000 349.720
28.33000 355.490
28.50000 346.649
28.67000 348.613
28.84000 352.297
29.01000 341.108
29.18000 343.941
29.35000 334.891
29.52000 367.555
29.69000 359.003
29.86000 349.981
30.03000 383.996
30.20000 374.241
30.37000 352.761
30.54000 347.906
30.71000 367.889
30.88000 380.103
31.05000 496.418
31.22000 978.148
31.39000 1308.198
31.56000 775.107
31.73000 442.823
31.90000 362.090
32.07000 344.670
32.24000 336.239
32.41000 324.528
32.58000 307.168
32.75000 309.905
32.92000 477.584
33.09000 405.151
33.26000 302.773
33.43000 287.888
33.60000 293.318
33.77000 297.550
33.94000 304.861
34.11000 296.823
34.28000 299.557
34.45000 309.114
34.62000 292.899
34.79000 299.011
34.96000 278.143
35.13000 260.845
35.30000 249.105
35.47000 261.280
35.64000 262.385
35.81000 251.648
35.98000 262.250
36.15000 254.075
36.32000 256.972
36.49000 234.440
36.66000 270.772
36.83000 260.945
37.00000 275.019
37.17000 271.388
37.34000 258.688
37.51000 250.285
37.68000 246.849
37.85000 253.059
38.02000 253.142
38.19000 265.294
38.36000 331.186
38.53000 636.517
38.70000 1028.253
38.87000 762.018
39.04000 339.893
39.21000 246.303
39.38000 223.692
39.55000 248.129
39.72000 227.176
39.89000 230.192
40.06000 227.348
40.23000 213.946
40.40000 225.208
40.57000 221.826
40.74000 218.530
40.91000 199.735
41.08000 212.195
41.25000 208.686
41.42000 210.470
41.59000 206.542
41.76000 195.438
41.93000 202.311
42.10000 202.731
42.27000 209.257
42.44000 219.377
42.61000 206.608
42.78000 213.096
42.95000 192.841
43.12000 203.315
43.29000 199.797
43.46000 190.572
43.63000 202.102
43.80000 175.368
43.97000 195.446
44.14000 185.381
44.31000 204.721
44.48000 199.042
44.65000 215.694
44.82000 227.840
44.99000 265.366
45.16000 259.053
45.33000 221.365
45.50000 218.494
45.67000 208.609
45.84000 190.324
46.01000 181.126
46.18000 171.009
46.35000 165.374
46.52000 175.986
46.69000 185.896
46.86000 168.753
47.03000 160.289
47.20000 162.001
47.37000 156.961
47.54000 162.253
47.71000 165.115
47.88000 153.616
48.05000 154.919
48.22000 149.142
48.39000 147.227
48.56000 162.444
48.73000 156.960
48.90000 140.424
49.07000 155.588
49.24000 148.070
49.41000 155.624
49.58000 142.875
49.75000 150.396
49.92000 151.947
50.09000 138.828
50.26000 148.598
50.43000 164.723
50.60000 177.970
50.77000 179.478
50.94000 153.998
51.11000 141.478
51.28000 141.210
51.45000 149.420
51.62000 138.192
51.79000 147.560
51.96000 135.073
52.13000 132.298
52.30000 138.786
52.47000 124.725
52.64000 131.112
52.81000 132.983
52.98000 135.072
53.15000 143.173
53.32000 153.502
53.49000 160.547
53.66000 150.264
53.83000 136.815
54.00000 137.801
54.17000 134.744
54.34000 143.437
54.51000 136.869
54.68000 143.066
54.85000 141.490
55.02000 140.858
55.19000 145.174
55.36000 153.919
55.53000 221.296
55.70000 387.963
55.87000 600.172
56.04000 543.786
56.21000 330.080
56.38000 197.480
56.55000 152.391
56.72000 129.467
56.89000 138.285
57.06000 132.359
57.23000 132.005
57.40000 115.493
57.57000 124.803
57.74000 118.450
57.91000 123.386
58.08000 130.521
58.25000 117.458
58.42000 120.178
58.59000 110.230
58.76000 124.788
58.93000 113.107
59.10000 122.691
59.27000 124.478
59.44000 111.656
59.61000 115.821
59.78000 110.851
59.95000 116.626
60.12000 114.206
60.29000 118.162
60.46000 117.962
60.63000 115.465
60.80000 128.627
60.97000 111.224
61.14000 124.691
61.31000 118.545
61.48000 138.746
61.65000 285.972
61.82000 196.728
61.99000 121.371
62.16000 123.714
62.33000 128.202
62.50000 136.145
62.67000 133.669
62.84000 126.443
63.01000 135.142
63.18000 134.650
63.35000 139.793
63.52000 138.250
63.69000 141.072
63.86000 145.689
64.03000 132.639
64.20000 155.858
64.37000 152.121
64.54000 160.827
64.71000 153.696
64.88000 183.488
65.05000 185.010
65.22000 226.942
65.39000 262.646
65.56000 337.519
65.73000 1085.984
65.90000 1968.833
66.07000 484.842
66.24000 399.757
66.41000 638.417
66.58000 388.014
66.75000 350.070
66.92000 348.369
67.09000 382.724
67.26000 385.064
67.43000 399.549
67.60000 418.410
67.77000 467.145
67.94000 491.962
68.11000 496.225
68.28000 561.960
68.45000 654.462
68.62000 903.852
68.79000 1581.890
68.96000 10068.588
69.13000 45311.801
69.30000 24421.574
69.47000 5806.541
69.64000 896.748
69.81000 640.701
69.98000 512.066
70.00000 493.490

File: BTO_Mapping_Theta2Theta_07-10-2025_001_39_-16-180_-11-756.xy
20.00000 479.381
20.17000 472.042
20.34000 454.300
20.51000 475.099
20.68000 474.657
20.85000 465.114
21.02000 468.475
21.19000 461.527
21.36000 452.609
21.53000 458.741
21.70000 472.844
21.87000 524.772
22.04000 587.445
22.21000 531.484
22.38000 463.575
22.55000 454.345
22.72000 443.177
22.89000 448.717
23.06000 449.556
23.23000 406.096
23.40000 436.192
23.57000 414.432
23.74000 420.947
23.91000 435.513
24.08000 434.113
24.25000 414.640
24.42000 409.082
24.59000 382.733
24.76000 423.149
24.93000 407.672
25.10000 403.080
25.27000 392.142
25.44000 378.089
25.61000 377.741
25.78000 407.515
25.95000 407.086
26.12000 393.241
26.29000 384.593
26.46000 378.170
26.63000 386.188
26.80000 367.815
26.97000 373.120
27.14000 386.608
27.31000 370.793
27.48000 364.287
27.65000 377.617
27.82000 372.016
27.99000 363.988
28.16000 367.106
28.33000 359.675
28.50000 362.000
28.67000 341.913
28.84000 351.404
29.01000 359.556
29.18000 342.361
29.35000 352.114
29.52000 351.532
29.69000 351.869
29.86000 390.712
30.03000 409.255
30.20000 392.277
30.37000 380.752
30.54000 357.150
30.71000 367.978
30.88000 409.516
31.05000 695.236
31.22000 1641.225
31.39000 2265.951
31.56000 1087.652
31.73000 474.409
31.90000 361.009
32.07000 343.800
32.24000 319.505
32.41000 319.015
32.58000 327.233
32.75000 315.030
32.92000 508.576
33.09000 414.670
33.26000 294.469
33.43000 292.874
33.60000 298.078
33.77000 287.937
33.94000 303.102
34.11000 303.661
34.28000 295.806
34.45000 302.484
34.62000 300.083
34.79000 282.647
34.96000 277.927
35.13000 268.486
35.30000 249.723
35.47000 251.852
35.64000 263.365
35.81000 259.516
35.98000 252.604
36.15000 253.867
36.32000 260.332
36.49000 241.808
36.66000 256.065
36.83000 271.293
37.00000 267.584
37.17000 267.000
37.34000 245.973
37.51000 256.980
37.68000 256.722
37.85000 250.086
38.02000 250.220
38.19000 265.182
38.36000 355.679
38.53000 664.405
38.70000 935.907
38.87000 632.689
39.04000 309.155
39.21000 253.987
39.38000 239.111
39.55000 230.279
39.72000 231.137
39.89000 227.391
40.06000 234.961
40.23000 226.610
40.40000 216.613
40.57000 206.920
40.74000 215.736
40.91000 204.951
41.08000 196.407
41.25000 205.707
41.42000 198.591
41.59000 208.172
41.76000 201.225
41.93000 200.815
42.10000 203.467
42.27000 189.260
42.44000 211.648
42.61000 211.537
42.78000 228.110
42.95000 191.386
43.12000 186.212
43.29000 196.201
43.46000 194.696
43.63000 186.599
43.80000 190.442
43.97000 192.230
44.14000 190.522
44.31000 190.534
44.48000 208.812
44.65000 215.105
44.82000 258.372
44.99000 285.429
45.16000 284.525
45.33000 236.807
45.50000 215.785
45.67000 198.738
45.84000 175.965
46.01000 165.833
46.18000 172.354
46.35000 175.128
46.52000 163.508
46.69000 179.251
46.86000 175.486
47.03000 162.362
47.20000 171.590
47.37000 167.380
47.54000 154.918
47.71000 150.583
47.88000 159.294
48.05000 155.984
48.22000 163.911
48.39000 145.965
48.56000 165.640
48.73000 154.369
48.90000 162.602
49.07000 160.576
49.24000 145.600
49.41000 147.311
49.58000 144.328
49.75000 148.982
49.92000 148.298
50.09000 156.688
50.26000 170.893
50.43000 183.957
50.60000 202.196
50.77000 195.804
50.94000 167.808
51.11000 153.645
51.28000 148.788
51.45000 140.252
51.62000 136.705
51.79000 137.839
51.96000 132.946
52.13000 142.816
52.30000 134.242
52.47000 140.801
52.64000 141.092
52.81000 142.069
52.98000 138.677
53.15000 154.030
53.32000 167.915
53.49000 153.472
53.66000 131.544
53.83000 138.999
54.00000 139.114
54.17000 126.559
54.34000 132.810
54.51000 140.067
54.68000 133.008
54.85000 139.224
55.02000 150.068
55.19000 153.354
55.36000 184.119
55.53000 272.196
55.70000 440.230
55.87000 591.261
56.04000 472.149
56.21000 272.748
56.38000 174.539
56.55000 136.566
56.72000 143.439
56.89000 127.052
57.06000 125.235
57.23000 122.162
57.40000 125.325
57.57000 123.499
57.74000 129.333
57.91000 120.527
58.08000 123.846
58.25000 130.480
58.42000 112.771
58.59000 123.390
58.76000 120.780
58.93000 128.062
59.10000 122.945
59.27000 112.005
59.44000 113.186
59.61000 117.780
59.78000 112.231
59.95000 114.552
60.12000 115.827
60.29000 103.037
60.46000 109.511
60.63000 110.076
60.80000 109.095
60.97000 124.796
61.14000 123.876
61.31000 123.712
61.48000 141.561
61.65000 297.723
61.82000 184.535
61.99000 124.875
62.16000 131.094
62.33000 121.930
62.50000 130.593
62.67000 125.911
62.84000 129.242
63.01000 132.699
63.18000 127.232
63.35000 131.671
63.52000 132.014
63.69000 147.911
63.86000 152.613
64.03000 145.459
64.20000 142.003
64.37000 155.144
64.54000 165.042
64.71000 164.153
64.88000 195.214
65.05000 211.217
65.22000 256.807
65.39000 319.004
65.56000 402.404
65.73000 1222.072
65.90000 2168.447
66.07000 527.523
66.24000 425.536
66.41000 669.995
66.58000 413.894
66.75000 369.454
66.92000 375.008
67.09000 388.247
67.26000 400.220
67.43000 418.901
67.60000 445.258
67.77000 470.167
67.94000 523.177
68.11000 537.474
68.28000 608.635
68.45000 654.129
68.62000 941.639
68.79000 1724.996
68.96000 11487.021
69.13000 49294.258
69.30000 26286.537
69.47000 6179.661
69.64000 954.773
69.81000 617.431
69.98000 524.560
70.00000 508.747

File: BTO_Mapping_Theta2Theta_07-10-2025_001_40_-24-271_-17-634.xy
20.00000 488.157
20.17000 466.710
20.34000 463.743
20.51000 461.163
20.68000 463.095
20.85000 473.087
21.02000 463.299
21.19000 483.960
21.36000 463.099
21.53000 451.797
21.70000 513.536
21.87000 613.904
22.04000 689.079
22.21000 544.772
22.38000 475.581
22.55000 454.508
22.72000 444.561
22.89000 453.078
23.06000 434.798
23.23000 419.050
23.40000 417.409
23.57000 410.680
23.74000 421.391
23.91000 431.242
24.08000 428.807
24.25000 416.102
24.42000 409.455
24.59000 394.775
24.76000 411.672
24.93000 404.433
25.10000 399.800
25.27000 396.667
25.44000 391.498
25.61000 392.971
25.78000 390.994
25.95000 394.383
26.12000 368.368
26.29000 383.951
26.46000 364.066
26.63000 363.998
26.80000 370.644
26.97000 376.902
27.14000 391.120
27.31000 364.178
27.48000 371.730
27.65000 337.478
27.82000 368.259
27.99000 359.745
28.16000 370.500
28.33000 369.879
28.50000 359.498
28.67000 359.048
28.84000 366.770
29.01000 337.462
29.18000 360.818
29.35000 356.131
29.52000 349.820
29.69000 369.191
29.86000 439.972
30.03000 452.117
30.20000 423.531
30.37000 380.493
30.54000 407.280
30.71000 397.661
30.88000 472.399
31.05000 861.057
31.22000 2233.248
31.39000 2877.926
31.56000 1336.296
31.73000 513.154
31.90000 368.005
32.07000 363.533
32.24000 323.210
32.41000 308.599
32.58000 325.377
32.75000 321.506
32.92000 551.896
33.09000 417.106
33.26000 289.861
33.43000 288.326
33.60000 286.533
33.77000 283.865
33.94000 297.026
34.11000 304.194
34.28000 276.899
34.45000 264.780
34.62000 287.628
34.79000 276.816
34.96000 257.361
35.13000 274.209
35.30000 270.826
35.47000 276.728
35.64000 251.689
35.81000 250.249
35.98000 260.625
36.15000 249.844
36.32000 249.413
36.49000 248.310
36.66000 244.393
36.83000 265.122
37.00000 261.139
37.17000 243.083
37.34000 258.400
37.51000 248.508
37.68000 247.931
37.85000 248.833
38.02000 251.036
38.19000 277.668
38.36000 335.173
38.53000 530.924
38.70000 644.452
38.87000 429.105
39.04000 284.536
39.21000 234.242
39.38000 231.044
39.55000 228.799
39.72000 241.352
39.89000 223.971
40.06000 227.635
40.23000 222.265
40.40000 213.652
40.57000 217.871
40.74000 207.857
40.91000 207.567
41.08000 201.919
41.25000 218.076
41.42000 208.002
41.59000 208.190
41.76000 207.557
41.93000 197.954
42.10000 194.640
42.27000 199.217
42.44000 196.495
42.61000 190.112
42.78000 199.929
42.95000 209.375
43.12000 201.697
43.29000 204.282
43.46000 189.509
43.63000 198.282
43.80000 208.090
43.97000 193.046
44.14000 195.549
44.31000 195.903
44.48000 213.791
44.65000 252.732
44.82000 330.069
44.99000 382.895
45.16000 322.151
45.33000 262.494
45.50000 222.749
45.67000 211.493
45.84000 194.637
46.01000 178.935
46.18000 179.279
46.35000 174.730
46.52000 163.306
46.69000 164.474
46.86000 187.525
47.03000 162.390
47.20000 155.518
47.37000 156.963
47.54000 152.398
47.71000 152.921
47.88000 159.716
48.05000 151.763
48.22000 164.080
48.39000 171.347
48.56000 157.245
48.73000 160.953
48.90000 153.397
49.07000 162.562
49.24000 153.033
49.41000 140.862
49.58000 155.441
49.75000 153.604
49.92000 146.218
50.09000 161.178
50.26000 186.357
50.43000 210.491
50.60000 244.061
50.77000 205.682
50.94000 179.502
51.11000 151.659
51.28000 156.637
51.45000 152.931
51.62000 150.621
51.79000 148.624
51.96000 141.295
52.13000 144.159
52.30000 133.989
52.47000 121.929
52.64000 136.227
52.81000 133.864
52.98000 139.706
53.15000 151.705
53.32000 149.649
53.49000 151.892
53.66000 139.353
53.83000 141.482
54.00000 133.325
54.17000 146.986
54.34000 137.672
54.51000 137.025
54.68000 144.103
54.85000 143.673
55.02000 139.884
55.19000 162.244
55.36000 198.909
55.53000 313.128
55.70000 493.532
55.87000 575.519
56.04000 461.800
56.21000 254.458
56.38000 180.616
56.55000 140.057
56.72000 130.950
56.89000 130.437
57.06000 132.009
57.23000 121.248
57.40000 125.361
57.57000 115.344
57.74000 131.771
57.91000 130.962
58.08000 120.525
58.25000 120.565
58.42000 124.135
58.59000 122.172
58.76000 109.328
58.93000 120.291
59.10000 118.665
59.27000 118.062
59.44000 112.239
59.61000 120.107
59.78000 118.130
59.95000 116.357
60.12000 114.092
60.29000 119.763
60.46000 125.476
60.63000 106.939
60.80000 119.072
60.97000 121.872
61.14000 121.533
61.31000 119.299
61.48000 125.279
61.65000 328.839
61.82000 207.955
61.99000 126.862
62.16000 128.373
62.33000 123.308
62.50000 124.725
62.67000 122.395
62.84000 119.705
63.01000 124.893
63.18000 124.727
63.35000 144.260
63.52000 143.392
63.69000 141.783
63.86000 140.817
64.03000 139.618
64.20000 162.842
64.37000 158.544
64.54000 168.176
64.71000 176.704
64.88000 189.750
65.05000 243.947
65.22000 300.623
65.39000 375.874
65.56000 440.018
65.73000 1375.859
65.90000 2447.592
66.07000 575.535
66.24000 447.101
66.41000 724.578
66.58000 458.881
66.75000 388.611
66.92000 377.487
67.09000 403.504
67.26000 435.223
67.43000 436.404
67.60000 464.455
67.77000 496.357
67.94000 518.462
68.11000 566.974
68.28000 594.820
68.45000 705.256
68.62000 1002.656
68.79000 1910.477
68.96000 13148.691
69.13000 55542.039
69.30000 29728.344
69.47000 7009.263
69.64000 995.377
69.81000 614.207
69.98000 542.872
70.00000 521.636