Folder: Master-Thesis/XRD/07-10-2025 Dep 6/XY Data (part 2)

File: BTO_Mapping_Theta2Theta_07-10-2025_001_17_12-361_38-042.xy
20.00000 485.033
20.17000 494.142
20.34000 479.594
20.51000 463.898
20.68000 474.535
20.85000 462.306
21.02000 458.857
21.19000 447.283
21.36000 459.182
21.53000 453.591
21.70000 466.975
21.87000 470.300
22.04000 495.116
22.21000 486.434
22.38000 472.660
22.55000 445.039
22.72000 441.852
22.89000 437.792
23.06000 428.186
23.23000 440.018
23.40000 431.444
23.57000 444.964
23.74000 468.040
23.91000 499.072
24.08000 475.053
24.25000 448.040
24.42000 402.269
24.59000 421.647
24.76000 406.262
24.93000 420.868
25.10000 398.533
25.27000 396.840
25.44000 393.795
25.61000 395.598
25.78000 388.989
25.95000 382.016
26.12000 404.272
26.29000 393.404
26.46000 366.880
26.63000 386.927
26.80000 376.388
26.97000 365.826
27.14000 375.668
27.31000 375.168
27.48000 386.130
27.65000 367.736
27.82000 349.095
27.99000 370.586
28.16000 359.762
28.33000 354.125
28.50000 369.043
28.67000 378.182
28.84000 383.111
29.01000 366.733
29.18000 356.615
29.35000 348.725
29.52000 364.024
29.69000 356.113
29.86000 367.452
30.03000 375.397
30.20000 387.623
30.37000 372.238
30.54000 355.716
30.71000 376.461
30.88000 411.175
31.05000 469.969
31.22000 735.178
31.39000 974.451
31.56000 735.026
31.73000 476.371
31.90000 385.132
32.07000 385.304
32.24000 343.970
32.41000 326.618
32.58000 319.146
32.75000 317.708
32.92000 502.955
33.09000 436.198
33.26000 305.508
33.43000 308.711
33.60000 295.606
33.77000 296.530
33.94000 311.363
34.11000 304.478
34.28000 318.985
34.45000 306.445
34.62000 295.300
34.79000 296.530
34.96000 266.715
35.13000 276.336
35.30000 254.903
35.47000 269.603
35.64000 262.358
35.81000 262.174
35.98000 257.108
36.15000 250.254
36.32000 245.746
36.49000 243.539
36.66000 250.362
36.83000 255.929
37.00000 266.346
37.17000 248.613
37.34000 252.109
37.51000 245.288
37.68000 243.103
37.85000 262.585
38.02000 257.967
38.19000 275.616
38.36000 291.747
38.53000 391.286
38.70000 574.075
38.87000 425.974
39.04000 276.297
39.21000 266.082
39.38000 228.396
39.55000 234.106
39.72000 225.209
39.89000 221.208
40.06000 215.744
40.23000 223.282
40.40000 214.562
40.57000 216.849
40.74000 196.764
40.91000 210.191
41.08000 209.469
41.25000 215.453
41.42000 193.953
41.59000 209.017
41.76000 215.300
41.93000 210.354
42.10000 214.092
42.27000 200.560
42.44000 211.260
42.61000 215.448
42.78000 200.542
42.95000 195.503
43.12000 199.564
43.29000 199.871
43.46000 190.975
43.63000 201.247
43.80000 196.530
43.97000 190.869
44.14000 185.428
44.31000 199.556
44.48000 198.158
44.65000 200.112
44.82000 212.124
44.99000 214.533
45.16000 208.627
45.33000 200.018
45.50000 188.136
45.67000 188.829
45.84000 172.010
46.01000 173.046
46.18000 168.872
46.35000 174.097
46.52000 177.378
46.69000 174.991
46.86000 180.181
47.03000 168.243
47.20000 171.650
47.37000 164.366
47.54000 164.960
47.71000 162.801
47.88000 165.789
48.05000 168.958
48.22000 161.462
48.39000 164.738
48.56000 153.892
48.73000 158.950
48.90000 167.105
49.07000 148.015
49.24000 155.503
49.41000 149.691
49.58000 151.569
49.75000 159.700
49.92000 163.830
50.09000 157.052
50.26000 153.894
50.43000 161.119
50.60000 174.860
50.77000 165.469
50.94000 162.953
51.11000 149.075
51.28000 153.465
51.45000 144.156
51.62000 146.239
51.79000 147.783
51.96000 134.228
52.13000 137.063
52.30000 132.910
52.47000 138.693
52.64000 145.992
52.81000 149.162
52.98000 139.539
53.15000 138.374
53.32000 138.000
53.49000 143.757
53.66000 133.012
53.83000 131.176
54.00000 147.594
54.17000 139.886
54.34000 130.552
54.51000 132.051
54.68000 130.586
54.85000 126.895
55.02000 137.218
55.19000 151.777
55.36000 148.493
55.53000 163.245
55.70000 203.455
55.87000 267.876
56.04000 250.196
56.21000 206.606
56.38000 166.658
56.55000 142.899
56.72000 140.535
56.89000 127.122
57.06000 126.161
57.23000 126.500
57.40000 123.041
57.57000 131.059
57.74000 124.610
57.91000 124.973
58.08000 120.120
58.25000 118.158
58.42000 114.644
58.59000 119.126
58.76000 116.801
58.93000 127.840
59.10000 117.261
59.27000 114.398
59.44000 117.120
59.61000 115.706
59.78000 116.393
59.95000 112.942
60.12000 113.248
60.29000 115.012
60.46000 122.906
60.63000 109.983
60.80000 107.980
60.97000 108.220
61.14000 128.345
61.31000 124.900
61.48000 138.480
61.65000 288.088
61.82000 200.758
61.99000 123.672
62.16000 124.234
62.33000 137.593
62.50000 136.722
62.67000 130.013
62.84000 127.537
63.01000 129.310
63.18000 134.723
63.35000 133.735
63.52000 128.669
63.69000 126.779
63.86000 153.502
64.03000 143.528
64.20000 166.144
64.37000 167.240
64.54000 160.728
64.71000 157.482
64.88000 183.245
65.05000 203.547
65.22000 204.743
65.39000 247.992
65.56000 305.844
65.73000 981.382
65.90000 1967.326
66.07000 517.667
66.24000 401.923
66.41000 660.977
66.58000 437.524
66.75000 349.232
66.92000 377.271
67.09000 391.677
67.26000 408.386
67.43000 404.379
67.60000 446.511
67.77000 469.429
67.94000 504.689
68.11000 559.232
68.28000 586.662
68.45000 663.125
68.62000 890.250
68.79000 1643.409
68.96000 9147.328
69.13000 45453.063
69.30000 25144.365
69.47000 6184.331
69.64000 933.624
69.81000 649.483
69.98000 503.010
70.00000 493.489

File: BTO_Mapping_Theta2Theta_07-10-2025_001_20_-3-136_29-836.xy
20.00000 468.170
20.17000 477.096
20.34000 456.793
20.51000 436.105
20.68000 451.786
20.85000 468.577
21.02000 472.042
21.19000 461.222
21.36000 452.018
21.53000 473.226
21.70000 463.616
21.87000 473.569
22.04000 493.268
22.21000 479.717
22.38000 474.957
22.55000 452.773
22.72000 441.586
22.89000 442.817
23.06000 419.112
23.23000 435.751
23.40000 419.626
23.57000 440.289
23.74000 462.688
23.91000 498.053
24.08000 484.096
24.25000 443.692
24.42000 432.860
24.59000 424.223
24.76000 399.365
24.93000 399.150
25.10000 397.308
25.27000 384.142
25.44000 408.139
25.61000 413.615
25.78000 373.344
25.95000 395.588
26.12000 383.266
26.29000 393.412
26.46000 390.461
26.63000 368.680
26.80000 367.507
26.97000 376.394
27.14000 375.873
27.31000 366.193
27.48000 345.873
27.65000 365.796
27.82000 362.286
27.99000 360.449
28.16000 359.246
28.33000 354.729
28.50000 346.881
28.67000 361.984
28.84000 366.776
29.01000 346.374
29.18000 329.945
29.35000 365.671
29.52000 327.248
29.69000 341.380
29.86000 367.303
30.03000 367.873
30.20000 382.251
30.37000 365.188
30.54000 362.459
30.71000 385.036
30.88000 397.576
31.05000 493.880
31.22000 826.530
31.39000 1256.172
31.56000 875.535
31.73000 479.707
31.90000 381.397
32.07000 345.705
32.24000 319.739
32.41000 329.138
32.58000 323.418
32.75000 312.784
32.92000 527.255
33.09000 414.356
33.26000 309.472
33.43000 296.785
33.60000 299.167
33.77000 290.773
33.94000 301.981
34.11000 304.291
34.28000 328.533
34.45000 315.770
34.62000 303.770
34.79000 285.416
34.96000 270.644
35.13000 259.044
35.30000 267.338
35.47000 260.918
35.64000 258.439
35.81000 261.886
35.98000 262.214
36.15000 258.037
36.32000 244.491
36.49000 254.581
36.66000 252.123
36.83000 260.326
37.00000 260.201
37.17000 259.583
37.34000 252.093
37.51000 260.690
37.68000 238.598
37.85000 250.762
38.02000 243.241
38.19000 256.228
38.36000 272.597
38.53000 463.748
38.70000 755.318
38.87000 586.747
39.04000 296.143
39.21000 248.013
39.38000 243.796
39.55000 251.380
39.72000 245.873
39.89000 238.327
40.06000 220.863
40.23000 222.715
40.40000 217.241
40.57000 219.893
40.74000 214.117
40.91000 189.875
41.08000 215.353
41.25000 206.351
41.42000 196.379
41.59000 202.692
41.76000 213.866
41.93000 205.431
42.10000 210.682
42.27000 205.964
42.44000 220.290
42.61000 206.267
42.78000 207.317
42.95000 190.402
43.12000 192.576
43.29000 201.251
43.46000 192.754
43.63000 175.477
43.80000 185.648
43.97000 183.320
44.14000 193.114
44.31000 188.218
44.48000 198.126
44.65000 208.774
44.82000 223.528
44.99000 224.993
45.16000 218.017
45.33000 209.432
45.50000 212.510
45.67000 186.703
45.84000 181.289
46.01000 172.620
46.18000 178.400
46.35000 173.839
46.52000 168.168
46.69000 182.363
46.86000 172.768
47.03000 170.201
47.20000 171.761
47.37000 163.482
47.54000 169.289
47.71000 155.051
47.88000 151.838
48.05000 149.612
48.22000 154.398
48.39000 184.024
48.56000 149.689
48.73000 149.223
48.90000 156.554
49.07000 153.298
49.24000 152.532
49.41000 146.222
49.58000 149.308
49.75000 159.577
49.92000 140.960
50.09000 144.878
50.26000 152.845
50.43000 160.578
50.60000 163.715
50.77000 156.004
50.94000 157.183
51.11000 154.673
51.28000 139.123
51.45000 151.800
51.62000 144.743
51.79000 142.060
51.96000 134.462
52.13000 141.634
52.30000 135.073
52.47000 133.455
52.64000 134.443
52.81000 140.811
52.98000 141.590
53.15000 147.301
53.32000 144.843
53.49000 141.046
53.66000 139.816
53.83000 145.119
54.00000 143.413
54.17000 142.089
54.34000 141.702
54.51000 142.695
54.68000 133.468
54.85000 140.245
55.02000 142.232
55.19000 146.827
55.36000 162.492
55.53000 182.740
55.70000 243.599
55.87000 386.666
56.04000 418.165
56.21000 277.965
56.38000 195.543
56.55000 151.417
56.72000 143.692
56.89000 138.114
57.06000 139.557
57.23000 131.144
57.40000 130.769
57.57000 121.778
57.74000 118.797
57.91000 126.910
58.08000 120.573
58.25000 120.281
58.42000 115.724
58.59000 123.424
58.76000 119.956
58.93000 105.696
59.10000 122.780
59.27000 113.223
59.44000 113.604
59.61000 115.956
59.78000 115.944
59.95000 119.450
60.12000 115.311
60.29000 121.452
60.46000 110.332
60.63000 116.033
60.80000 127.143
60.97000 116.079
61.14000 128.318
61.31000 126.031
61.48000 140.609
61.65000 288.231
61.82000 187.019
61.99000 130.941
62.16000 131.132
62.33000 125.475
62.50000 128.499
62.67000 123.135
62.84000 128.001
63.01000 131.967
63.18000 130.456
63.35000 135.604
63.52000 134.069
63.69000 160.460
63.86000 138.811
64.03000 132.893
64.20000 143.705
64.37000 152.987
64.54000 164.101
64.71000 181.240
64.88000 184.120
65.05000 211.815
65.22000 222.483
65.39000 252.962
65.56000 317.585
65.73000 1045.628
65.90000 1907.067
66.07000 503.895
66.24000 374.086
66.41000 622.766
66.58000 412.457
66.75000 377.888
66.92000 357.319
67.09000 390.397
67.26000 410.781
67.43000 419.286
67.60000 426.599
67.77000 460.292
67.94000 496.138
68.11000 519.121
68.28000 582.922
68.45000 642.781
68.62000 895.443
68.79000 1611.265
68.96000 9917.271
69.13000 44370.984
69.30000 23694.979
69.47000 5482.882
69.64000 897.920
69.81000 627.888
69.98000 485.992
70.00000 482.313

File: BTO_Mapping_Theta2Theta_07-10-2025_001_22_-5-000_8-660.xy
20.00000 481.981
20.17000 473.280
20.34000 466.450
20.51000 459.365
20.68000 461.092
20.85000 461.943
21.02000 457.835
21.19000 451.847
21.36000 465.205
21.53000 459.099
21.70000 468.171
21.87000 505.052
22.04000 531.391
22.21000 515.649
22.38000 470.463
22.55000 464.433
22.72000 448.207
22.89000 437.329
23.06000 441.045
23.23000 442.036
23.40000 434.038
23.57000 420.218
23.74000 449.164
23.91000 470.615
24.08000 482.783
24.25000 460.115
24.42000 407.349
24.59000 416.552
24.76000 394.831
24.93000 390.973
25.10000 402.515
25.27000 406.321
25.44000 399.856
25.61000 385.169
25.78000 380.633
25.95000 378.278
26.12000 377.739
26.29000 373.142
26.46000 364.597
26.63000 363.040
26.80000 379.721
26.97000 382.756
27.14000 377.097
27.31000 375.939
27.48000 353.263
27.65000 377.453
27.82000 371.312
27.99000 354.560
28.16000 349.461
28.33000 353.527
28.50000 350.386
28.67000 348.823
28.84000 361.673
29.01000 344.942
29.18000 336.809
29.35000 341.277
29.52000 348.682
29.69000 356.258
29.86000 363.344
30.03000 367.774
30.20000 353.037
30.37000 355.472
30.54000 358.979
30.71000 357.704
30.88000 384.913
31.05000 459.873
31.22000 785.804
31.39000 1111.993
31.56000 774.241
31.73000 460.129
31.90000 365.417
32.07000 357.284
32.24000 327.941
32.41000 319.546
32.58000 312.006
32.75000 316.348
32.92000 492.319
33.09000 420.617
33.26000 286.446
33.43000 287.245
33.60000 304.253
33.77000 288.475
33.94000 299.932
34.11000 318.283
34.28000 332.418
34.45000 323.073
34.62000 306.425
34.79000 298.362
34.96000 267.659
35.13000 284.712
35.30000 256.998
35.47000 263.213
35.64000 263.773
35.81000 272.621
35.98000 267.429
36.15000 254.496
36.32000 249.524
36.49000 260.370
36.66000 240.940
36.83000 259.843
37.00000 276.597
37.17000 267.194
37.34000 240.354
37.51000 252.075
37.68000 251.202
37.85000 238.766
38.02000 273.971
38.19000 257.863
38.36000 305.426
38.53000 550.384
38.70000 938.440
38.87000 718.506
39.04000 318.586
39.21000 241.371
39.38000 222.959
39.55000 251.882
39.72000 226.259
39.89000 228.549
40.06000 221.120
40.23000 222.705
40.40000 216.229
40.57000 212.593
40.74000 230.644
40.91000 206.672
41.08000 207.541
41.25000 204.011
41.42000 200.876
41.59000 203.757
41.76000 203.493
41.93000 206.773
42.10000 205.681
42.27000 209.079
42.44000 214.440
42.61000 218.844
42.78000 185.111
42.95000 182.579
43.12000 187.464
43.29000 202.511
43.46000 186.968
43.63000 188.080
43.80000 184.484
43.97000 194.691
44.14000 190.798
44.31000 189.511
44.48000 201.322
44.65000 203.497
44.82000 219.317
44.99000 250.892
45.16000 252.500
45.33000 244.180
45.50000 209.428
45.67000 194.574
45.84000 193.385
46.01000 184.275
46.18000 178.124
46.35000 169.753
46.52000 170.439
46.69000 173.085
46.86000 183.289
47.03000 177.617
47.20000 155.765
47.37000 170.071
47.54000 148.051
47.71000 157.487
47.88000 159.679
48.05000 155.291
48.22000 155.593
48.39000 166.757
48.56000 160.416
48.73000 155.232
48.90000 155.163
49.07000 152.549
49.24000 164.588
49.41000 151.587
49.58000 153.530
49.75000 151.422
49.92000 153.278
50.09000 168.403
50.26000 146.315
50.43000 152.132
50.60000 151.324
50.77000 168.312
50.94000 152.674
51.11000 163.090
51.28000 134.908
51.45000 132.632
51.62000 128.660
51.79000 150.422
51.96000 147.700
52.13000 136.705
52.30000 135.276
52.47000 141.827
52.64000 142.323
52.81000 134.941
52.98000 135.284
53.15000 138.577
53.32000 144.313
53.49000 149.797
53.66000 141.535
53.83000 140.512
54.00000 132.921
54.17000 145.072
54.34000 125.343
54.51000 149.155
54.68000 145.576
54.85000 138.235
55.02000 140.749
55.19000 143.218
55.36000 162.009
55.53000 193.077
55.70000 322.440
55.87000 546.001
56.04000 550.861
56.21000 347.366
56.38000 204.828
56.55000 156.783
56.72000 134.446
56.89000 134.084
57.06000 129.219
57.23000 126.776
57.40000 126.803
57.57000 124.644
57.74000 104.046
57.91000 119.251
58.08000 121.472
58.25000 119.241
58.42000 123.039
58.59000 117.404
58.76000 118.170
58.93000 118.373
59.10000 117.173
59.27000 114.618
59.44000 115.740
59.61000 118.612
59.78000 115.616
59.95000 121.446
60.12000 121.292
60.29000 112.164
60.46000 119.854
60.63000 115.895
60.80000 114.929
60.97000 120.149
61.14000 124.353
61.31000 119.648
61.48000 135.911
61.65000 266.054
61.82000 192.664
61.99000 128.162
62.16000 125.827
62.33000 133.536
62.50000 124.845
62.67000 131.135
62.84000 127.597
63.01000 127.266
63.18000 125.293
63.35000 145.416
63.52000 123.828
63.69000 144.440
63.86000 139.447
64.03000 140.062
64.20000 144.219
64.37000 146.465
64.54000 153.171
64.71000 160.891
64.88000 180.139
65.05000 179.707
65.22000 217.463
65.39000 248.658
65.56000 323.393
65.73000 1017.570
65.90000 1919.773
66.07000 507.151
66.24000 385.473
66.41000 600.275
66.58000 430.885
66.75000 333.798
66.92000 366.419
67.09000 366.883
67.26000 389.706
67.43000 404.001
67.60000 417.292
67.77000 442.724
67.94000 498.692
68.11000 547.958
68.28000 568.125
68.45000 630.161
68.62000 890.737
68.79000 1543.049
68.96000 9610.304
69.13000 43641.898
69.30000 23549.590
69.47000 5585.423
69.64000 880.215
69.81000 607.223
69.98000 492.409
70.00000 475.410

File: BTO_Mapping_Theta2Theta_07-10-2025_001_27_-16-180_11-756.xy
20.00000 464.958
20.17000 480.888
20.34000 466.877
20.51000 459.754
20.68000 454.196
20.85000 459.577
21.02000 448.672
21.19000 456.975
21.36000 465.998
21.53000 467.207
21.70000 477.060
21.87000 513.941
22.04000 537.009
22.21000 541.766
22.38000 477.876
22.55000 457.042
22.72000 437.041
22.89000 440.158
23.06000 432.484
23.23000 430.492
23.40000 432.467
23.57000 424.861
23.74000 417.373
23.91000 440.293
24.08000 455.825
24.25000 424.125
24.42000 409.462
24.59000 381.777
24.76000 411.482
24.93000 404.534
25.10000 401.754
25.27000 396.203
25.44000 381.063
25.61000 396.908
25.78000 402.384
25.95000 377.974
26.12000 380.684
26.29000 396.862
26.46000 382.612
26.63000 369.725
26.80000 377.299
26.97000 367.156
27.14000 366.794
27.31000 379.787
27.48000 367.913
27.65000 382.539
27.82000 355.710
27.99000 357.917
28.16000 364.708
28.33000 365.151
28.50000 358.127
28.67000 359.611
28.84000 356.311
29.01000 351.194
29.18000 356.224
29.35000 346.838
29.52000 354.388
29.69000 351.627
29.86000 373.246
30.03000 392.505
30.20000 362.457
30.37000 358.638
30.54000 362.316
30.71000 369.072
30.88000 406.288
31.05000 531.106
31.22000 1013.078
31.39000 1421.806
31.56000 822.742
31.73000 448.648
31.90000 373.013
32.07000 350.148
32.24000 314.121
32.41000 313.125
32.58000 311.888
32.75000 309.004
32.92000 510.420
33.09000 408.287
33.26000 294.578
33.43000 276.289
33.60000 301.433
33.77000 302.353
33.94000 296.124
34.11000 308.728
34.28000 309.016
34.45000 303.593
34.62000 299.834
34.79000 295.049
34.96000 283.302
35.13000 274.382
35.30000 256.355
35.47000 262.603
35.64000 258.232
35.81000 259.317
35.98000 254.045
36.15000 262.964
36.32000 262.458
36.49000 249.286
36.66000 262.186
36.83000 249.007
37.00000 284.235
37.17000 264.628
37.34000 254.847
37.51000 251.543
37.68000 248.364
37.85000 243.293
38.02000 265.632
38.19000 279.601
38.36000 321.265
38.53000 632.557
38.70000 970.102
38.87000 736.291
39.04000 310.034
39.21000 234.060
39.38000 242.301
39.55000 232.510
39.72000 240.759
39.89000 221.612
40.06000 218.921
40.23000 212.123
40.40000 221.156
40.57000 215.257
40.74000 214.424
40.91000 209.292
41.08000 191.646
41.25000 213.864
41.42000 205.404
41.59000 213.518
41.76000 203.477
41.93000 190.633
42.10000 202.626
42.27000 205.670
42.44000 206.879
42.61000 193.243
42.78000 186.265
42.95000 204.914
43.12000 178.830
43.29000 196.195
43.46000 183.750
43.63000 196.687
43.80000 196.763
43.97000 186.665
44.14000 189.999
44.31000 200.473
44.48000 197.234
44.65000 214.543
44.82000 232.449
44.99000 253.124
45.16000 267.917
45.33000 233.235
45.50000 215.956
45.67000 193.679
45.84000 197.183
46.01000 182.757
46.18000 187.112
46.35000 177.007
46.52000 167.423
46.69000 175.020
46.86000 151.330
47.03000 168.890
47.20000 165.680
47.37000 162.031
47.54000 161.117
47.71000 155.342
47.88000 162.544
48.05000 154.133
48.22000 167.085
48.39000 162.430
48.56000 146.622
48.73000 159.012
48.90000 148.197
49.07000 159.406
49.24000 151.481
49.41000 147.478
49.58000 156.765
49.75000 157.493
49.92000 159.451
50.09000 146.848
50.26000 156.601
50.43000 179.080
50.60000 186.192
50.77000 169.841
50.94000 163.632
51.11000 154.877
51.28000 143.060
51.45000 146.387
51.62000 147.896
51.79000 142.813
51.96000 129.921
52.13000 139.499
52.30000 139.139
52.47000 140.849
52.64000 136.287
52.81000 135.480
52.98000 142.848
53.15000 145.740
53.32000 158.052
53.49000 146.114
53.66000 143.915
53.83000 139.140
54.00000 136.575
54.17000 141.779
54.34000 141.087
54.51000 151.052
54.68000 139.560
54.85000 142.970
55.02000 141.623
55.19000 144.370
55.36000 155.726
55.53000 222.767
55.70000 383.296
55.87000 560.744
56.04000 533.902
56.21000 325.566
56.38000 186.939
56.55000 139.759
56.72000 134.541
56.89000 130.447
57.06000 129.170
57.23000 119.686
57.40000 118.960
57.57000 132.814
57.74000 123.759
57.91000 119.847
58.08000 124.528
58.25000 121.400
58.42000 116.950
58.59000 127.390
58.76000 114.873
58.93000 114.143
59.10000 110.108
59.27000 122.955
59.44000 108.422
59.61000 116.987
59.78000 113.490
59.95000 119.285
60.12000 116.772
60.29000 117.450
60.46000 132.209
60.63000 111.714
60.80000 116.797
60.97000 117.040
61.14000 120.339
61.31000 123.613
61.48000 127.525
61.65000 289.658
61.82000 197.712
61.99000 132.164
62.16000 141.810
62.33000 126.407
62.50000 132.830
62.67000 119.774
62.84000 129.011
63.01000 129.908
63.18000 127.453
63.35000 124.907
63.52000 139.274
63.69000 130.394
63.86000 144.618
64.03000 141.919
64.20000 133.546
64.37000 150.143
64.54000 155.249
64.71000 165.771
64.88000 165.807
65.05000 200.227
65.22000 240.681
65.39000 268.472
65.56000 352.657
65.73000 1122.324
65.90000 1961.676
66.07000 501.835
66.24000 389.556
66.41000 670.277
66.58000 421.462
66.75000 356.333
66.92000 358.317
67.09000 357.708
67.26000 421.391
67.43000 408.878
67.60000 429.497
67.77000 457.394
67.94000 494.602
68.11000 529.867
68.28000 576.684
68.45000 645.367
68.62000 929.053
68.79000 1675.152
68.96000 11056.695
69.13000 46341.867
69.30000 24585.982
69.47000 5627.408
69.64000 934.049
69.81000 618.802
69.98000 496.521
70.00000 494.866

File: BTO_Mapping_Theta2Theta_07-10-2025_001_30_-9-781_2-079.xy
20.00000 468.374
20.17000 473.309
20.34000 467.300
20.51000 452.750
20.68000 473.475
20.85000 470.019
21.02000 462.153
21.19000 454.780
21.36000 447.377
21.53000 468.416
21.70000 457.877
21.87000 518.124
22.04000 556.664
22.21000 523.183
22.38000 469.080
22.55000 448.899
22.72000 437.896
22.89000 429.555
23.06000 433.110
23.23000 427.615
23.40000 426.641
23.57000 410.081
23.74000 434.789
23.91000 460.517
24.08000 449.152
24.25000 425.674
24.42000 412.521
24.59000 403.517
24.76000 399.922
24.93000 403.804
25.10000 401.528
25.27000 385.390
25.44000 401.318
25.61000 386.240
25.78000 395.250
25.95000 385.397
26.12000 381.787
26.29000 385.536
26.46000 399.673
26.63000 386.861
26.80000 381.652
26.97000 380.994
27.14000 366.327
27.31000 367.014
27.48000 367.216
27.65000 357.077
27.82000 352.084
27.99000 356.306
28.16000 361.582
28.33000 360.173
28.50000 365.028
28.67000 352.154
28.84000 344.865
29.01000 347.702
29.18000 331.259
29.35000 349.213
29.52000 339.146
29.69000 344.760
29.86000 350.898
30.03000 371.166
30.20000 373.453
30.37000 339.356
30.54000 332.682
30.71000 392.241
30.88000 382.239
31.05000 498.608
31.22000 956.288
31.39000 1314.032
31.56000 796.283
31.73000 446.493
31.90000 375.570
32.07000 344.440
32.24000 328.057
32.41000 318.932
32.58000 320.734
32.75000 322.393
32.92000 492.162
33.09000 414.028
33.26000 295.007
33.43000 301.078
33.60000 290.226
33.77000 299.792
33.94000 308.199
34.11000 307.437
34.28000 317.108
34.45000 308.543
34.62000 310.805
34.79000 290.823
34.96000 279.094
35.13000 259.342
35.30000 254.242
35.47000 263.909
35.64000 257.626
35.81000 255.249
35.98000 266.691
36.15000 246.341
36.32000 258.815
36.49000 252.620
36.66000 249.520
36.83000 270.666
37.00000 278.801
37.17000 269.167
37.34000 262.600
37.51000 255.036
37.68000 257.413
37.85000 253.813
38.02000 245.248
38.19000 253.341
38.36000 312.964
38.53000 622.097
38.70000 1000.115
38.87000 752.622
39.04000 320.890
39.21000 247.228
39.38000 229.172
39.55000 218.719
39.72000 231.279
39.89000 233.018
40.06000 219.948
40.23000 214.265
40.40000 221.618
40.57000 225.256
40.74000 216.499
40.91000 202.681
41.08000 216.278
41.25000 207.142
41.42000 200.000
41.59000 200.272
41.76000 207.799
41.93000 202.321
42.10000 196.122
42.27000 212.112
42.44000 211.615
42.61000 195.713
42.78000 207.964
42.95000 203.157
43.12000 198.788
43.29000 195.495
43.46000 187.236
43.63000 197.171
43.80000 170.186
43.97000 189.965
44.14000 175.121
44.31000 187.884
44.48000 202.316
44.65000 211.613
44.82000 218.485
44.99000 255.478
45.16000 259.381
45.33000 220.936
45.50000 208.165
45.67000 200.650
45.84000 183.131
46.01000 181.389
46.18000 177.275
46.35000 169.473
46.52000 174.846
46.69000 186.505
46.86000 172.983
47.03000 167.907
47.20000 161.646
47.37000 165.079
47.54000 156.062
47.71000 155.248
47.88000 155.075
48.05000 163.130
48.22000 155.998
48.39000 159.005
48.56000 147.723
48.73000 146.820
48.90000 146.415
49.07000 145.482
49.24000 155.679
49.41000 148.531
49.58000 147.263
49.75000 154.295
49.92000 141.658
50.09000 143.010
50.26000 162.620
50.43000 157.151
50.60000 185.991
50.77000 181.168
50.94000 158.114
51.11000 138.703
51.28000 139.750
51.45000 142.252
51.62000 143.617
51.79000 145.077
51.96000 139.781
52.13000 130.197
52.30000 137.934
52.47000 139.948
52.64000 130.192
52.81000 126.448
52.98000 146.879
53.15000 137.870
53.32000 146.673
53.49000 157.654
53.66000 145.491
53.83000 142.951
54.00000 135.726
54.17000 120.506
54.34000 136.967
54.51000 135.147
54.68000 131.628
54.85000 135.859
55.02000 141.497
55.19000 153.351
55.36000 155.907
55.53000 215.030
55.70000 364.784
55.87000 579.067
56.04000 575.958
56.21000 347.069
56.38000 178.651
56.55000 151.819
56.72000 132.943
56.89000 133.807
57.06000 129.229
57.23000 125.643
57.40000 128.125
57.57000 125.734
57.74000 126.367
57.91000 122.539
58.08000 113.691
58.25000 117.002
58.42000 124.736
58.59000 120.201
58.76000 118.081
58.93000 114.935
59.10000 117.447
59.27000 113.385
59.44000 118.465
59.61000 118.723
59.78000 112.862
59.95000 117.039
60.12000 118.066
60.29000 112.376
60.46000 115.873
60.63000 115.095
60.80000 117.640
60.97000 115.323
61.14000 130.925
61.31000 118.838
61.48000 136.740
61.65000 285.631
61.82000 196.984
61.99000 124.682
62.16000 134.857
62.33000 128.486
62.50000 122.866
62.67000 134.281
62.84000 121.965
63.01000 126.453
63.18000 120.725
63.35000 135.238
63.52000 130.305
63.69000 137.768
63.86000 139.524
64.03000 151.897
64.20000 148.590
64.37000 158.097
64.54000 154.578
64.71000 155.687
64.88000 169.396
65.05000 193.082
65.22000 217.487
65.39000 259.762
65.56000 335.915
65.73000 1077.308
65.90000 1996.238
66.07000 487.909
66.24000 395.776
66.41000 621.426
66.58000 408.535
66.75000 337.071
66.92000 351.689
67.09000 372.746
67.26000 375.754
67.43000 402.852
67.60000 446.851
67.77000 456.782
67.94000 470.080
68.11000 518.646
68.28000 569.325
68.45000 639.931
68.62000 913.045
68.79000 1579.072
68.96000 10331.284
69.13000 45379.289
69.30000 24296.938
69.47000 5633.022
69.64000 912.599
69.81000 609.035
69.98000 509.534
70.00000 501.552