Folder: Master-Thesis/XRD/07-10-2025 Dep 6/XY Data (part 4)

File: BTO_Mapping_Theta2Theta_07-10-2025_001_41_-32-361_-23-511.xy
20.00000 461.163
20.17000 465.724
20.34000 447.038
20.51000 462.871
20.68000 468.170
20.85000 475.408
21.02000 479.646
21.19000 483.536
21.36000 459.122
21.53000 471.010
21.70000 516.271
21.87000 702.075
22.04000 749.511
22.21000 595.188
22.38000 482.579
22.55000 445.586
22.72000 442.207
22.89000 428.917
23.06000 423.399
23.23000 430.190
23.40000 424.455
23.57000 417.207
23.74000 415.471
23.91000 403.084
24.08000 419.266
24.25000 409.608
24.42000 393.449
24.59000 415.512
24.76000 405.579
24.93000 405.519
25.10000 391.378
25.27000 400.281
25.44000 402.640
25.61000 409.915
25.78000 386.874
25.95000 385.633
26.12000 380.029
26.29000 390.824
26.46000 381.019
26.63000 376.786
26.80000 371.300
26.97000 378.751
27.14000 366.246
27.31000 380.660
27.48000 359.325
27.65000 354.655
27.82000 370.514
27.99000 353.889
28.16000 372.860
28.33000 377.843
28.50000 363.633
28.67000 335.931
28.84000 369.094
29.01000 360.449
29.18000 346.461
29.35000 341.107
29.52000 342.794
29.69000 375.945
29.86000 451.922
30.03000 470.381
30.20000 443.939
30.37000 407.607
30.54000 385.317
30.71000 411.872
30.88000 498.472
31.05000 1116.539
31.22000 2905.179
31.39000 3263.438
31.56000 1457.110
31.73000 571.232
31.90000 391.288
32.07000 346.289
32.24000 338.096
32.41000 327.708
32.58000 329.686
32.75000 332.334
32.92000 598.001
33.09000 469.663
33.26000 289.896
33.43000 285.228
33.60000 307.282
33.77000 279.854
33.94000 278.819
34.11000 296.574
34.28000 273.897
34.45000 284.918
34.62000 276.889
34.79000 280.739
34.96000 268.754
35.13000 266.048
35.30000 267.713
35.47000 257.246
35.64000 266.287
35.81000 264.973
35.98000 255.817
36.15000 250.165
36.32000 258.800
36.49000 249.470
36.66000 260.859
36.83000 257.505
37.00000 261.408
37.17000 255.132
37.34000 257.119
37.51000 246.453
37.68000 250.930
37.85000 254.608
38.02000 261.176
38.19000 248.188
38.36000 315.873
38.53000 446.060
38.70000 448.563
38.87000 342.799
39.04000 255.643
39.21000 231.422
39.38000 222.233
39.55000 230.433
39.72000 214.410
39.89000 228.010
40.06000 218.317
40.23000 217.168
40.40000 220.790
40.57000 221.852
40.74000 212.291
40.91000 195.300
41.08000 212.584
41.25000 199.049
41.42000 205.508
41.59000 200.807
41.76000 215.315
41.93000 200.426
42.10000 215.361
42.27000 200.503
42.44000 194.036
42.61000 196.415
42.78000 206.129
42.95000 203.247
43.12000 208.375
43.29000 192.500
43.46000 197.758
43.63000 189.559
43.80000 202.311
43.97000 186.872
44.14000 206.772
44.31000 213.792
44.48000 251.518
44.65000 323.118
44.82000 429.158
44.99000 439.972
45.16000 334.905
45.33000 267.350
45.50000 229.342
45.67000 197.108
45.84000 199.207
46.01000 179.010
46.18000 178.053
46.35000 176.020
46.52000 172.633
46.69000 176.640
46.86000 174.262
47.03000 174.654
47.20000 163.613
47.37000 155.058
47.54000 168.900
47.71000 173.464
47.88000 155.766
48.05000 164.462
48.22000 158.228
48.39000 161.933
48.56000 157.609
48.73000 169.348
48.90000 144.537
49.07000 150.074
49.24000 147.883
49.41000 159.225
49.58000 155.002
49.75000 159.014
49.92000 169.364
50.09000 167.478
50.26000 198.115
50.43000 244.271
50.60000 251.827
50.77000 217.512
50.94000 186.564
51.11000 156.903
51.28000 154.211
51.45000 152.968
51.62000 146.900
51.79000 136.688
51.96000 147.995
52.13000 140.741
52.30000 145.645
52.47000 131.364
52.64000 142.997
52.81000 138.605
52.98000 147.257
53.15000 151.764
53.32000 151.626
53.49000 147.923
53.66000 135.646
53.83000 140.883
54.00000 140.552
54.17000 133.333
54.34000 137.013
54.51000 140.210
54.68000 141.055
54.85000 150.391
55.02000 141.276
55.19000 163.048
55.36000 219.676
55.53000 339.793
55.70000 490.385
55.87000 488.603
56.04000 390.010
56.21000 252.393
56.38000 169.773
56.55000 154.555
56.72000 128.061
56.89000 134.451
57.06000 129.367
57.23000 115.451
57.40000 130.916
57.57000 123.809
57.74000 112.969
57.91000 119.288
58.08000 128.576
58.25000 127.657
58.42000 114.627
58.59000 128.667
58.76000 118.487
58.93000 115.508
59.10000 118.467
59.27000 130.760
59.44000 114.782
59.61000 114.470
59.78000 120.266
59.95000 120.495
60.12000 111.737
60.29000 107.982
60.46000 116.304
60.63000 109.037
60.80000 114.679
60.97000 116.945
61.14000 125.514
61.31000 119.263
61.48000 142.221
61.65000 354.543
61.82000 234.779
61.99000 122.145
62.16000 129.873
62.33000 125.647
62.50000 127.223
62.67000 135.523
62.84000 135.668
63.01000 133.392
63.18000 139.597
63.35000 134.102
63.52000 124.532
63.69000 137.070
63.86000 151.276
64.03000 160.417
64.20000 163.355
64.37000 163.926
64.54000 172.286
64.71000 177.393
64.88000 214.016
65.05000 291.796
65.22000 345.952
65.39000 428.575
65.56000 510.667
65.73000 1603.083
65.90000 2793.273
66.07000 651.045
66.24000 521.229
66.41000 857.691
66.58000 513.401
66.75000 404.683
66.92000 407.063
67.09000 451.837
67.26000 471.489
67.43000 489.692
67.60000 487.338
67.77000 518.310
67.94000 589.896
68.11000 603.429
68.28000 662.224
68.45000 765.011
68.62000 1122.101
68.79000 2250.276
68.96000 16313.629
69.13000 65474.828
69.30000 35309.063
69.47000 8319.714
69.64000 1079.739
69.81000 714.142
69.98000 537.468
70.00000 529.136

File: BTO_Mapping_Theta2Theta_07-10-2025_001_42_-5-000_-8-660.xy
20.00000 463.351
20.17000 470.330
20.34000 448.678
20.51000 457.372
20.68000 469.656
20.85000 459.847
21.02000 433.872
21.19000 466.533
21.36000 448.032
21.53000 432.141
21.70000 483.038
21.87000 522.895
22.04000 550.671
22.21000 525.535
22.38000 488.070
22.55000 451.210
22.72000 428.917
22.89000 430.990
23.06000 439.529
23.23000 436.949
23.40000 415.292
23.57000 408.570
23.74000 438.956
23.91000 460.015
24.08000 490.127
24.25000 430.105
24.42000 401.850
24.59000 407.125
24.76000 391.512
24.93000 407.383
25.10000 385.326
25.27000 389.972
25.44000 399.720
25.61000 398.861
25.78000 373.741
25.95000 391.172
26.12000 398.142
26.29000 382.368
26.46000 381.898
26.63000 377.274
26.80000 380.022
26.97000 374.488
27.14000 366.562
27.31000 361.120
27.48000 368.960
27.65000 356.273
27.82000 373.016
27.99000 366.287
28.16000 362.560
28.33000 369.765
28.50000 355.943
28.67000 355.413
28.84000 363.036
29.01000 362.824
29.18000 336.788
29.35000 344.334
29.52000 354.970
29.69000 322.636
29.86000 359.257
30.03000 381.434
30.20000 362.575
30.37000 360.486
30.54000 365.477
30.71000 372.918
30.88000 385.423
31.05000 492.166
31.22000 857.691
31.39000 1168.633
31.56000 749.348
31.73000 428.531
31.90000 358.052
32.07000 344.349
32.24000 320.068
32.41000 300.240
32.58000 301.840
32.75000 315.035
32.92000 485.723
33.09000 414.125
33.26000 303.653
33.43000 276.043
33.60000 292.180
33.77000 307.828
33.94000 297.420
34.11000 318.006
34.28000 326.508
34.45000 332.621
34.62000 310.357
34.79000 287.122
34.96000 289.750
35.13000 271.194
35.30000 254.980
35.47000 272.513
35.64000 258.475
35.81000 251.808
35.98000 253.812
36.15000 256.461
36.32000 261.359
36.49000 241.051
36.66000 248.959
36.83000 268.532
37.00000 278.677
37.17000 262.677
37.34000 252.691
37.51000 260.003
37.68000 261.276
37.85000 252.509
38.02000 255.303
38.19000 260.709
38.36000 322.242
38.53000 626.068
38.70000 1029.276
38.87000 770.072
39.04000 322.153
39.21000 255.800
39.38000 235.780
39.55000 248.857
39.72000 229.155
39.89000 218.809
40.06000 229.256
40.23000 213.185
40.40000 219.593
40.57000 205.984
40.74000 202.111
40.91000 212.974
41.08000 202.903
41.25000 201.835
41.42000 202.303
41.59000 210.175
41.76000 197.040
41.93000 202.205
42.10000 212.013
42.27000 205.824
42.44000 198.426
42.61000 209.009
42.78000 211.082
42.95000 186.723
43.12000 194.517
43.29000 194.285
43.46000 187.299
43.63000 194.031
43.80000 200.441
43.97000 183.110
44.14000 194.468
44.31000 209.687
44.48000 207.025
44.65000 216.908
44.82000 234.915
44.99000 255.669
45.16000 250.853
45.33000 233.375
45.50000 198.923
45.67000 197.331
45.84000 186.702
46.01000 173.680
46.18000 174.355
46.35000 169.730
46.52000 164.774
46.69000 171.035
46.86000 163.422
47.03000 158.108
47.20000 166.241
47.37000 158.228
47.54000 165.200
47.71000 158.237
47.88000 160.751
48.05000 154.412
48.22000 149.390
48.39000 171.547
48.56000 158.749
48.73000 150.793
48.90000 144.276
49.07000 148.828
49.24000 157.095
49.41000 152.289
49.58000 149.611
49.75000 149.616
49.92000 163.806
50.09000 146.112
50.26000 148.455
50.43000 151.052
50.60000 168.265
50.77000 179.376
50.94000 151.420
51.11000 148.408
51.28000 134.026
51.45000 132.604
51.62000 144.314
51.79000 139.616
51.96000 130.202
52.13000 140.065
52.30000 140.123
52.47000 133.902
52.64000 137.109
52.81000 140.467
52.98000 140.597
53.15000 136.216
53.32000 152.424
53.49000 161.964
53.66000 150.104
53.83000 139.796
54.00000 133.109
54.17000 139.245
54.34000 135.088
54.51000 140.951
54.68000 128.937
54.85000 143.472
55.02000 152.117
55.19000 151.527
55.36000 162.620
55.53000 213.619
55.70000 383.282
55.87000 584.211
56.04000 565.542
56.21000 326.316
56.38000 197.167
56.55000 151.322
56.72000 136.442
56.89000 116.995
57.06000 133.979
57.23000 127.601
57.40000 142.941
57.57000 123.512
57.74000 122.970
57.91000 113.518
58.08000 123.861
58.25000 117.567
58.42000 118.950
58.59000 125.878
58.76000 125.011
58.93000 118.781
59.10000 118.145
59.27000 117.029
59.44000 122.279
59.61000 119.592
59.78000 111.188
59.95000 111.540
60.12000 116.836
60.29000 118.987
60.46000 110.110
60.63000 119.321
60.80000 112.812
60.97000 117.448
61.14000 125.780
61.31000 121.420
61.48000 127.699
61.65000 293.950
61.82000 191.968
61.99000 130.532
62.16000 126.142
62.33000 117.794
62.50000 131.678
62.67000 126.175
62.84000 123.415
63.01000 128.167
63.18000 137.459
63.35000 135.913
63.52000 135.331
63.69000 127.394
63.86000 145.346
64.03000 145.077
64.20000 144.874
64.37000 142.437
64.54000 154.048
64.71000 158.399
64.88000 172.694
65.05000 198.328
65.22000 220.328
65.39000 252.644
65.56000 327.008
65.73000 1056.313
65.90000 1956.226
66.07000 491.161
66.24000 387.084
66.41000 617.246
66.58000 404.763
66.75000 347.454
66.92000 367.013
67.09000 374.366
67.26000 388.540
67.43000 405.509
67.60000 425.797
67.77000 461.014
67.94000 470.352
68.11000 530.833
68.28000 566.585
68.45000 635.436
68.62000 893.167
68.79000 1583.206
68.96000 9621.327
69.13000 44246.484
69.30000 23899.803
69.47000 5688.909
69.64000 914.128
69.81000 603.611
69.98000 509.179
70.00000 501.543

File: BTO_Mapping_Theta2Theta_07-10-2025_001_43_-10-000_-17-321.xy
20.00000 465.135
20.17000 457.113
20.34000 465.787
20.51000 460.596
20.68000 471.054
20.85000 454.165
21.02000 472.117
21.19000 471.669
21.36000 457.484
21.53000 449.833
21.70000 462.069
21.87000 519.715
22.04000 538.994
22.21000 545.297
22.38000 476.262
22.55000 441.086
22.72000 453.381
22.89000 403.857
23.06000 417.276
23.23000 413.639
23.40000 407.227
23.57000 434.778
23.74000 450.738
23.91000 452.433
24.08000 462.397
24.25000 447.152
24.42000 404.574
24.59000 385.332
24.76000 402.192
24.93000 393.181
25.10000 380.770
25.27000 386.352
25.44000 397.743
25.61000 415.179
25.78000 379.737
25.95000 390.132
26.12000 378.797
26.29000 380.464
26.46000 380.579
26.63000 365.435
26.80000 371.440
26.97000 350.136
27.14000 361.190
27.31000 367.818
27.48000 369.871
27.65000 354.778
27.82000 351.818
27.99000 366.709
28.16000 351.026
28.33000 373.097
28.50000 375.537
28.67000 349.328
28.84000 349.785
29.01000 361.719
29.18000 340.435
29.35000 362.398
29.52000 349.678
29.69000 355.861
29.86000 373.796
30.03000 380.584
30.20000 380.804
30.37000 343.590
30.54000 356.822
30.71000 370.584
30.88000 395.979
31.05000 578.975
31.22000 1228.476
31.39000 1602.447
31.56000 844.824
31.73000 459.763
31.90000 367.098
32.07000 334.540
32.24000 300.411
32.41000 320.704
32.58000 314.646
32.75000 306.294
32.92000 499.903
33.09000 404.178
33.26000 288.460
33.43000 295.824
33.60000 301.222
33.77000 296.993
33.94000 298.687
34.11000 311.802
34.28000 310.688
34.45000 305.515
34.62000 310.297
34.79000 292.466
34.96000 282.833
35.13000 273.107
35.30000 252.838
35.47000 263.095
35.64000 269.643
35.81000 252.183
35.98000 251.444
36.15000 251.745
36.32000 238.816
36.49000 246.155
36.66000 259.739
36.83000 273.138
37.00000 294.492
37.17000 266.919
37.34000 255.193
37.51000 252.327
37.68000 238.537
37.85000 256.236
38.02000 258.034
38.19000 268.639
38.36000 342.216
38.53000 688.021
38.70000 1064.820
38.87000 763.729
39.04000 339.491
39.21000 232.862
39.38000 218.542
39.55000 237.178
39.72000 230.282
39.89000 233.531
40.06000 233.807
40.23000 216.930
40.40000 209.926
40.57000 211.946
40.74000 220.771
40.91000 206.618
41.08000 206.251
41.25000 214.694
41.42000 207.753
41.59000 212.269
41.76000 209.082
41.93000 206.289
42.10000 208.021
42.27000 192.754
42.44000 199.943
42.61000 196.958
42.78000 194.666
42.95000 195.780
43.12000 191.676
43.29000 193.177
43.46000 184.948
43.63000 188.484
43.80000 191.834
43.97000 187.536
44.14000 185.039
44.31000 195.662
44.48000 209.270
44.65000 218.994
44.82000 235.982
44.99000 274.709
45.16000 251.414
45.33000 245.758
45.50000 223.293
45.67000 199.193
45.84000 193.667
46.01000 185.558
46.18000 176.006
46.35000 170.795
46.52000 178.245
46.69000 167.063
46.86000 173.442
47.03000 173.799
47.20000 171.456
47.37000 156.609
47.54000 159.403
47.71000 162.400
47.88000 171.367
48.05000 158.917
48.22000 156.054
48.39000 155.014
48.56000 156.417
48.73000 156.591
48.90000 154.321
49.07000 162.715
49.24000 150.663
49.41000 140.930
49.58000 150.104
49.75000 148.904
49.92000 159.969
50.09000 148.334
50.26000 150.638
50.43000 174.760
50.60000 186.246
50.77000 175.322
50.94000 159.975
51.11000 147.126
51.28000 137.592
51.45000 143.596
51.62000 146.810
51.79000 140.984
51.96000 137.384
52.13000 132.535
52.30000 131.908
52.47000 134.359
52.64000 149.528
52.81000 137.006
52.98000 136.738
53.15000 140.621
53.32000 151.020
53.49000 149.675
53.66000 140.548
53.83000 126.572
54.00000 141.972
54.17000 135.479
54.34000 142.425
54.51000 132.122
54.68000 139.554
54.85000 141.593
55.02000 145.583
55.19000 158.385
55.36000 179.133
55.53000 235.988
55.70000 424.883
55.87000 604.643
56.04000 525.335
56.21000 313.093
56.38000 184.478
56.55000 142.995
56.72000 137.860
56.89000 128.679
57.06000 129.479
57.23000 131.862
57.40000 124.505
57.57000 128.175
57.74000 130.627
57.91000 119.160
58.08000 122.398
58.25000 124.208
58.42000 116.742
58.59000 113.069
58.76000 107.506
58.93000 111.604
59.10000 118.275
59.27000 122.352
59.44000 124.513
59.61000 119.875
59.78000 117.935
59.95000 117.644
60.12000 118.021
60.29000 113.700
60.46000 110.216
60.63000 114.409
60.80000 117.650
60.97000 124.295
61.14000 122.750
61.31000 118.242
61.48000 139.878
61.65000 283.999
61.82000 187.017
61.99000 122.281
62.16000 119.872
62.33000 130.989
62.50000 125.525
62.67000 123.870
62.84000 131.814
63.01000 126.820
63.18000 129.046
63.35000 128.956
63.52000 151.140
63.69000 145.651
63.86000 138.357
64.03000 144.507
64.20000 148.205
64.37000 153.972
64.54000 158.149
64.71000 163.671
64.88000 179.266
65.05000 201.284
65.22000 243.736
65.39000 274.288
65.56000 363.325
65.73000 1095.218
65.90000 2013.214
66.07000 516.819
66.24000 397.747
66.41000 667.692
66.58000 415.533
66.75000 333.514
66.92000 363.136
67.09000 357.565
67.26000 379.232
67.43000 402.678
67.60000 430.169
67.77000 463.989
67.94000 487.947
68.11000 538.265
68.28000 593.263
68.45000 646.895
68.62000 897.171
68.79000 1610.254
68.96000 10473.395
69.13000 46770.035
69.30000 25097.918
69.47000 5949.781
69.64000 883.663
69.81000 597.637
69.98000 517.130
70.00000 504.928

File: BTO_Mapping_Theta2Theta_07-10-2025_001_48_-3-136_-29-836.xy
20.00000 484.586
20.17000 465.055
20.34000 454.360
20.51000 470.419
20.68000 460.498
20.85000 455.760
21.02000 452.943
21.19000 470.360
21.36000 466.147
21.53000 480.524
21.70000 481.073
21.87000 499.350
22.04000 552.257
22.21000 525.974
22.38000 472.803
22.55000 463.893
22.72000 443.425
22.89000 427.121
23.06000 425.751
23.23000 420.918
23.40000 429.889
23.57000 446.107
23.74000 447.074
23.91000 481.144
24.08000 462.031
24.25000 437.300
24.42000 429.530
24.59000 409.589
24.76000 399.039
24.93000 415.527
25.10000 407.581
25.27000 403.872
25.44000 385.841
25.61000 422.237
25.78000 381.997
25.95000 402.998
26.12000 391.487
26.29000 384.819
26.46000 389.526
26.63000 377.681
26.80000 383.211
26.97000 376.842
27.14000 357.143
27.31000 361.395
27.48000 393.840
27.65000 381.029
27.82000 351.389
27.99000 354.394
28.16000 365.118
28.33000 363.892
28.50000 362.773
28.67000 341.643
28.84000 341.514
29.01000 355.164
29.18000 341.545
29.35000 352.520
29.52000 350.807
29.69000 361.044
29.86000 362.736
30.03000 379.237
30.20000 364.072
30.37000 350.300
30.54000 347.023
30.71000 358.926
30.88000 402.275
31.05000 505.640
31.22000 903.423
31.39000 1227.257
31.56000 753.060
31.73000 455.325
31.90000 355.816
32.07000 355.319
32.24000 330.075
32.41000 317.299
32.58000 307.023
32.75000 316.104
32.92000 489.367
33.09000 423.956
33.26000 295.499
33.43000 305.556
33.60000 291.113
33.77000 289.530
33.94000 288.618
34.11000 313.338
34.28000 319.763
34.45000 312.209
34.62000 312.952
34.79000 303.270
34.96000 299.557
35.13000 261.082
35.30000 274.814
35.47000 267.923
35.64000 270.750
35.81000 276.831
35.98000 250.385
36.15000 261.763
36.32000 263.516
36.49000 249.715
36.66000 251.096
36.83000 277.884
37.00000 278.776
37.17000 274.779
37.34000 264.695
37.51000 244.509
37.68000 260.801
37.85000 252.921
38.02000 238.103
38.19000 253.463
38.36000 337.131
38.53000 637.125
38.70000 1087.911
38.87000 785.120
39.04000 345.923
39.21000 237.600
39.38000 255.372
39.55000 218.614
39.72000 247.978
39.89000 235.126
40.06000 224.137
40.23000 214.846
40.40000 219.381
40.57000 223.831
40.74000 212.114
40.91000 220.115
41.08000 189.291
41.25000 209.677
41.42000 207.614
41.59000 202.727
41.76000 212.601
41.93000 204.669
42.10000 205.141
42.27000 216.948
42.44000 199.232
42.61000 199.897
42.78000 210.745
42.95000 195.611
43.12000 194.463
43.29000 190.127
43.46000 191.516
43.63000 185.456
43.80000 194.429
43.97000 204.042
44.14000 192.055
44.31000 195.837
44.48000 214.993
44.65000 228.176
44.82000 231.657
44.99000 274.733
45.16000 269.493
45.33000 228.104
45.50000 207.721
45.67000 202.873
45.84000 185.796
46.01000 187.680
46.18000 171.702
46.35000 177.036
46.52000 177.091
46.69000 170.344
46.86000 182.300
47.03000 159.215
47.20000 172.536
47.37000 169.869
47.54000 165.766
47.71000 152.171
47.88000 163.713
48.05000 153.957
48.22000 145.252
48.39000 150.822
48.56000 151.548
48.73000 154.092
48.90000 150.465
49.07000 156.166
49.24000 159.471
49.41000 157.085
49.58000 153.038
49.75000 144.502
49.92000 144.492
50.09000 144.792
50.26000 153.385
50.43000 160.933
50.60000 179.259
50.77000 162.579
50.94000 159.400
51.11000 155.841
51.28000 147.934
51.45000 152.135
51.62000 141.083
51.79000 142.614
51.96000 136.304
52.13000 140.210
52.30000 144.794
52.47000 142.130
52.64000 134.528
52.81000 133.698
52.98000 144.333
53.15000 147.261
53.32000 153.233
53.49000 146.885
53.66000 147.046
53.83000 137.120
54.00000 142.877
54.17000 139.258
54.34000 136.636
54.51000 145.158
54.68000 139.355
54.85000 144.210
55.02000 144.400
55.19000 158.288
55.36000 160.559
55.53000 228.092
55.70000 407.568
55.87000 619.920
56.04000 571.923
56.21000 346.231
56.38000 188.532
56.55000 156.744
56.72000 133.679
56.89000 131.041
57.06000 131.924
57.23000 123.516
57.40000 122.888
57.57000 118.717
57.74000 127.035
57.91000 121.299
58.08000 119.807
58.25000 118.944
58.42000 128.001
58.59000 113.801
58.76000 118.914
58.93000 117.570
59.10000 119.499
59.27000 116.583
59.44000 114.016
59.61000 122.709
59.78000 118.844
59.95000 110.075
60.12000 109.453
60.29000 117.697
60.46000 109.662
60.63000 109.308
60.80000 110.184
60.97000 114.164
61.14000 128.975
61.31000 122.877
61.48000 137.838
61.65000 270.039
61.82000 191.399
61.99000 131.002
62.16000 127.784
62.33000 117.075
62.50000 130.596
62.67000 124.970
62.84000 129.993
63.01000 126.912
63.18000 118.743
63.35000 142.032
63.52000 130.185
63.69000 136.905
63.86000 133.290
64.03000 136.244
64.20000 144.562
64.37000 152.392
64.54000 159.373
64.71000 168.860
64.88000 172.925
65.05000 190.575
65.22000 211.581
65.39000 252.896
65.56000 317.413
65.73000 1012.878
65.90000 1921.317
66.07000 511.943
66.24000 373.941
66.41000 612.095
66.58000 401.129
66.75000 349.985
66.92000 348.068
67.09000 372.849
67.26000 385.791
67.43000 399.951
67.60000 430.551
67.77000 440.331
67.94000 472.952
68.11000 512.733
68.28000 561.087
68.45000 638.049
68.62000 883.568
68.79000 1554.938
68.96000 9362.442
69.13000 43802.578
69.30000 23825.445
69.47000 5732.124
69.64000 905.595
69.81000 621.819
69.98000 486.566
70.00000 488.424

File: BTO_Mapping_Theta2Theta_07-10-2025_001_49_-4-181_-39-781.xy
20.00000 465.980
20.17000 465.908
20.34000 473.403
20.51000 458.931
20.68000 455.930
20.85000 478.449
21.02000 471.911
21.19000 472.473
21.36000 478.945
21.53000 461.194
21.70000 455.107
21.87000 530.067
22.04000 590.285
22.21000 530.616
22.38000 466.373
22.55000 440.465
22.72000 434.119
22.89000 450.209
23.06000 435.661
23.23000 432.656
23.40000 417.906
23.57000 433.143
23.74000 456.983
23.91000 482.298
24.08000 452.955
24.25000 430.107
24.42000 411.106
24.59000 407.734
24.76000 423.525
24.93000 405.804
25.10000 426.860
25.27000 400.603
25.44000 391.302
25.61000 395.965
25.78000 386.379
25.95000 404.586
26.12000 379.953
26.29000 365.627
26.46000 370.887
26.63000 373.385
26.80000 368.087
26.97000 385.897
27.14000 369.575
27.31000 361.428
27.48000 364.074
27.65000 378.644
27.82000 353.548
27.99000 346.418
28.16000 358.228
28.33000 373.260
28.50000 360.709
28.67000 338.376
28.84000 337.565
29.01000 346.492
29.18000 347.023
29.35000 356.012
29.52000 333.535
29.69000 353.266
29.86000 367.608
30.03000 390.069
30.20000 362.221
30.37000 357.641
30.54000 343.985
30.71000 357.705
30.88000 370.384
31.05000 530.124
31.22000 974.729
31.39000 1315.092
31.56000 789.036
31.73000 431.097
31.90000 375.141
32.07000 325.806
32.24000 320.318
32.41000 304.682
32.58000 311.395
32.75000 313.327
32.92000 474.597
33.09000 413.170
33.26000 291.612
33.43000 283.913
33.60000 297.907
33.77000 282.370
33.94000 297.823
34.11000 300.222
34.28000 318.450
34.45000 309.737
34.62000 299.678
34.79000 289.238
34.96000 291.832
35.13000 278.196
35.30000 274.743
35.47000 268.015
35.64000 257.836
35.81000 259.298
35.98000 262.640
36.15000 262.415
36.32000 238.042
36.49000 259.305
36.66000 268.368
36.83000 238.068
37.00000 291.055
37.17000 280.966
37.34000 264.788
37.51000 255.554
37.68000 245.904
37.85000 251.480
38.02000 257.074
38.19000 274.930
38.36000 321.510
38.53000 647.941
38.70000 1082.250
38.87000 791.321
39.04000 337.943
39.21000 244.823
39.38000 235.853
39.55000 230.556
39.72000 225.392
39.89000 212.944
40.06000 233.563
40.23000 207.980
40.40000 225.437
40.57000 212.131
40.74000 221.378
40.91000 213.588
41.08000 214.325
41.25000 211.562
41.42000 212.499
41.59000 216.469
41.76000 200.363
41.93000 214.944
42.10000 215.018
42.27000 198.535
42.44000 196.766
42.61000 188.516
42.78000 201.451
42.95000 216.271
43.12000 199.688
43.29000 190.934
43.46000 194.657
43.63000 183.839
43.80000 206.657
43.97000 195.509
44.14000 193.797
44.31000 189.642
44.48000 204.381
44.65000 202.265
44.82000 263.895
44.99000 299.306
45.16000 277.421
45.33000 244.369
45.50000 203.662
45.67000 192.323
45.84000 191.328
46.01000 170.650
46.18000 174.167
46.35000 175.359
46.52000 176.137
46.69000 184.222
46.86000 180.890
47.03000 153.216
47.20000 161.228
47.37000 153.766
47.54000 154.553
47.71000 163.252
47.88000 162.728
48.05000 158.450
48.22000 158.508
48.39000 156.973
48.56000 156.400
48.73000 153.092
48.90000 153.173
49.07000 149.897
49.24000 153.573
49.41000 146.176
49.58000 148.808
49.75000 147.267
49.92000 158.774
50.09000 157.197
50.26000 148.751
50.43000 166.774
50.60000 173.314
50.77000 170.418
50.94000 161.775
51.11000 147.879
51.28000 143.392
51.45000 144.873
51.62000 141.282
51.79000 143.926
51.96000 140.772
52.13000 133.814
52.30000 145.356
52.47000 142.606
52.64000 146.869
52.81000 141.689
52.98000 139.105
53.15000 158.849
53.32000 154.665
53.49000 150.172
53.66000 141.632
53.83000 143.799
54.00000 145.177
54.17000 135.381
54.34000 138.940
54.51000 137.970
54.68000 132.878
54.85000 152.229
55.02000 143.662
55.19000 157.235
55.36000 175.163
55.53000 233.377
55.70000 424.406
55.87000 628.830
56.04000 560.506
56.21000 319.636
56.38000 184.375
56.55000 160.780
56.72000 136.274
56.89000 142.198
57.06000 129.333
57.23000 126.623
57.40000 131.963
57.57000 132.369
57.74000 126.065
57.91000 125.493
58.08000 121.524
58.25000 117.077
58.42000 128.122
58.59000 115.700
58.76000 117.195
58.93000 123.822
59.10000 116.630
59.27000 112.558
59.44000 110.259
59.61000 123.972
59.78000 115.415
59.95000 116.776
60.12000 124.551
60.29000 118.209
60.46000 115.346
60.63000 115.535
60.80000 107.089
60.97000 124.092
61.14000 122.034
61.31000 124.604
61.48000 132.249
61.65000 278.424
61.82000 187.392
61.99000 121.621
62.16000 122.315
62.33000 120.657
62.50000 133.828
62.67000 133.259
62.84000 129.644
63.01000 135.424
63.18000 136.410
63.35000 136.111
63.52000 136.687
63.69000 133.689
63.86000 138.892
64.03000 142.908
64.20000 143.372
64.37000 150.968
64.54000 159.009
64.71000 171.639
64.88000 184.170
65.05000 198.480
65.22000 206.241
65.39000 276.358
65.56000 324.056
65.73000 1001.349
65.90000 1928.739
66.07000 502.362
66.24000 363.291
66.41000 613.912
66.58000 412.667
66.75000 340.143
66.92000 355.624
67.09000 369.621
67.26000 381.625
67.43000 398.486
67.60000 424.002
67.77000 437.907
67.94000 478.193
68.11000 491.923
68.28000 544.448
68.45000 636.843
68.62000 875.004
68.79000 1537.168
68.96000 9090.132
69.13000 43519.848
69.30000 23666.549
69.47000 5950.303
69.64000 899.058
69.81000 609.931
69.98000 493.904
70.00000 497.108