Folder: Master-Thesis/XRD/22-09-2025 Dep 2/XY Data (part 6)

File: BTO_Mapping_Theta2Theta_22-09-2025_001_47_-6-235_-7-818.xy
20.00000 571.103
20.17000 553.915
20.34000 574.966
20.51000 559.027
20.68000 560.392
20.85000 552.411
21.02000 562.179
21.19000 564.429
21.36000 567.875
21.53000 561.731
21.70000 573.924
21.87000 696.683
22.04000 836.294
22.21000 759.474
22.38000 640.158
22.55000 570.776
22.72000 562.593
22.89000 514.020
23.06000 534.889
23.23000 482.903
23.40000 512.874
23.57000 509.531
23.74000 510.587
23.91000 489.964
24.08000 518.803
24.25000 489.142
24.42000 481.115
24.59000 500.365
24.76000 484.175
24.93000 476.985
25.10000 479.089
25.27000 465.019
25.44000 471.238
25.61000 458.567
25.78000 488.679
25.95000 468.099
26.12000 464.935
26.29000 461.414
26.46000 462.498
26.63000 458.706
26.80000 455.145
26.97000 440.663
27.14000 456.902
27.31000 453.572
27.48000 446.128
27.65000 434.829
27.82000 444.152
27.99000 432.831
28.16000 458.765
28.33000 413.094
28.50000 437.057
28.67000 429.459
28.84000 422.144
29.01000 418.420
29.18000 424.792
29.35000 395.758
29.52000 420.313
29.69000 403.891
29.86000 440.610
30.03000 437.908
30.20000 447.008
30.37000 436.941
30.54000 447.601
30.71000 463.815
30.88000 509.400
31.05000 742.211
31.22000 1854.063
31.39000 3375.912
31.56000 2084.653
31.73000 853.135
31.90000 524.933
32.07000 441.682
32.24000 420.277
32.41000 406.306
32.58000 407.375
32.75000 395.144
32.92000 480.470
33.09000 409.689
33.26000 361.195
33.43000 351.787
33.60000 352.185
33.77000 351.299
33.94000 367.163
34.11000 333.497
34.28000 326.411
34.45000 327.680
34.62000 328.493
34.79000 321.712
34.96000 334.824
35.13000 325.253
35.30000 314.018
35.47000 319.660
35.64000 323.943
35.81000 303.348
35.98000 296.288
36.15000 311.042
36.32000 315.293
36.49000 318.485
36.66000 292.695
36.83000 298.158
37.00000 296.784
37.17000 298.191
37.34000 303.094
37.51000 298.706
37.68000 290.579
37.85000 299.563
38.02000 305.702
38.19000 316.964
38.36000 362.207
38.53000 590.775
38.70000 929.882
38.87000 668.375
39.04000 381.269
39.21000 309.542
39.38000 287.635
39.55000 293.265
39.72000 271.505
39.89000 289.938
40.06000 261.661
40.23000 264.250
40.40000 263.015
40.57000 254.074
40.74000 256.787
40.91000 262.688
41.08000 266.600
41.25000 251.148
41.42000 243.149
41.59000 250.587
41.76000 238.071
41.93000 232.605
42.10000 242.669
42.27000 242.026
42.44000 234.405
42.61000 246.969
42.78000 228.218
42.95000 235.271
43.12000 235.433
43.29000 227.110
43.46000 225.561
43.63000 231.293
43.80000 223.881
43.97000 236.942
44.14000 232.205
44.31000 238.948
44.48000 248.391
44.65000 276.052
44.82000 335.036
44.99000 465.721
45.16000 454.333
45.33000 356.791
45.50000 290.069
45.67000 257.195
45.84000 213.869
46.01000 230.427
46.18000 218.614
46.35000 217.840
46.52000 219.356
46.69000 192.261
46.86000 192.746
47.03000 192.042
47.20000 195.850
47.37000 201.790
47.54000 200.778
47.71000 182.973
47.88000 182.947
48.05000 180.716
48.22000 200.903
48.39000 193.205
48.56000 191.511
48.73000 180.401
48.90000 184.684
49.07000 182.947
49.24000 173.070
49.41000 176.444
49.58000 181.437
49.75000 182.420
49.92000 186.280
50.09000 175.634
50.26000 178.429
50.43000 211.931
50.60000 250.222
50.77000 261.418
50.94000 224.280
51.11000 199.594
51.28000 182.909
51.45000 174.668
51.62000 174.561
51.79000 178.498
51.96000 176.591
52.13000 158.196
52.30000 166.634
52.47000 164.192
52.64000 157.836
52.81000 175.271
52.98000 166.438
53.15000 163.235
53.32000 167.663
53.49000 162.508
53.66000 160.039
53.83000 155.451
54.00000 160.429
54.17000 146.188
54.34000 162.238
54.51000 160.218
54.68000 162.048
54.85000 161.499
55.02000 176.668
55.19000 168.843
55.36000 180.918
55.53000 224.708
55.70000 332.376
55.87000 555.090
56.04000 561.260
56.21000 374.342
56.38000 242.008
56.55000 185.806
56.72000 170.016
56.89000 166.279
57.06000 155.224
57.23000 148.360
57.40000 155.280
57.57000 160.828
57.74000 150.486
57.91000 146.378
58.08000 148.928
58.25000 135.042
58.42000 141.945
58.59000 129.003
58.76000 127.652
58.93000 142.084
59.10000 141.322
59.27000 137.153
59.44000 133.380
59.61000 137.088
59.78000 135.193
59.95000 140.494
60.12000 136.582
60.29000 137.934
60.46000 130.662
60.63000 122.511
60.80000 135.035
60.97000 126.710
61.14000 131.081
61.31000 144.030
61.48000 144.379
61.65000 343.104
61.82000 230.294
61.99000 146.424
62.16000 145.716
62.33000 150.513
62.50000 151.316
62.67000 146.674
62.84000 145.386
63.01000 152.237
63.18000 143.086
63.35000 152.976
63.52000 150.454
63.69000 154.407
63.86000 166.014
64.03000 161.210
64.20000 164.044
64.37000 159.146
64.54000 165.038
64.71000 164.485
64.88000 195.327
65.05000 204.286
65.22000 250.315
65.39000 317.740
65.56000 441.811
65.73000 841.295
65.90000 1522.955
66.07000 458.131
66.24000 363.299
66.41000 540.536
66.58000 401.106
66.75000 348.166
66.92000 367.389
67.09000 391.397
67.26000 445.656
67.43000 474.971
67.60000 493.409
67.77000 538.699
67.94000 582.820
68.11000 654.905
68.28000 714.160
68.45000 867.674
68.62000 1292.169
68.79000 2707.266
68.96000 20347.723
69.13000 87722.992
69.30000 52505.660
69.47000 12843.848
69.64000 1621.088
69.81000 1031.589
69.98000 822.476
70.00000 820.095

File: BTO_Mapping_Theta2Theta_22-09-2025_001_49_-18-705_-23-455.xy
20.00000 553.238
20.17000 599.679
20.34000 581.026
20.51000 583.903
20.68000 552.612
20.85000 563.679
21.02000 573.642
21.19000 539.750
21.36000 565.086
21.53000 574.000
21.70000 602.745
21.87000 721.718
22.04000 866.578
22.21000 749.352
22.38000 618.715
22.55000 572.992
22.72000 534.477
22.89000 526.510
23.06000 520.346
23.23000 510.899
23.40000 519.823
23.57000 515.948
23.74000 498.396
23.91000 498.762
24.08000 495.139
24.25000 498.919
24.42000 482.660
24.59000 495.804
24.76000 473.434
24.93000 485.155
25.10000 496.996
25.27000 484.002
25.44000 484.870
25.61000 495.209
25.78000 450.961
25.95000 470.214
26.12000 451.008
26.29000 469.815
26.46000 452.763
26.63000 448.810
26.80000 451.473
26.97000 428.948
27.14000 442.037
27.31000 458.519
27.48000 449.789
27.65000 441.593
27.82000 429.044
27.99000 435.446
28.16000 443.068
28.33000 443.702
28.50000 425.187
28.67000 429.301
28.84000 425.891
29.01000 425.906
29.18000 413.338
29.35000 414.288
29.52000 425.984
29.69000 418.705
29.86000 428.812
30.03000 438.928
30.20000 445.034
30.37000 426.820
30.54000 445.983
30.71000 465.332
30.88000 506.370
31.05000 666.831
31.22000 1766.893
31.39000 3617.477
31.56000 2325.889
31.73000 893.045
31.90000 518.731
32.07000 437.891
32.24000 418.488
32.41000 425.619
32.58000 401.590
32.75000 395.533
32.92000 468.710
33.09000 412.065
33.26000 365.491
33.43000 353.253
33.60000 350.024
33.77000 348.640
33.94000 340.589
34.11000 340.388
34.28000 342.556
34.45000 336.270
34.62000 323.789
34.79000 335.526
34.96000 346.882
35.13000 337.415
35.30000 314.007
35.47000 319.958
35.64000 316.496
35.81000 306.224
35.98000 309.204
36.15000 315.274
36.32000 298.143
36.49000 296.952
36.66000 298.585
36.83000 309.998
37.00000 314.974
37.17000 305.933
37.34000 310.844
37.51000 308.676
37.68000 289.234
37.85000 289.469
38.02000 303.070
38.19000 310.878
38.36000 375.804
38.53000 572.200
38.70000 816.477
38.87000 616.469
39.04000 390.371
39.21000 319.119
39.38000 289.309
39.55000 290.371
39.72000 287.423
39.89000 270.503
40.06000 280.435
40.23000 278.838
40.40000 256.593
40.57000 262.812
40.74000 251.513
40.91000 255.985
41.08000 242.539
41.25000 249.736
41.42000 253.664
41.59000 247.312
41.76000 230.521
41.93000 255.163
42.10000 239.742
42.27000 247.993
42.44000 238.653
42.61000 228.403
42.78000 240.985
42.95000 234.581
43.12000 235.708
43.29000 239.078
43.46000 237.202
43.63000 235.354
43.80000 223.027
43.97000 227.457
44.14000 237.701
44.31000 237.902
44.48000 253.093
44.65000 291.035
44.82000 373.975
44.99000 475.805
45.16000 451.132
45.33000 363.375
45.50000 279.784
45.67000 260.438
45.84000 228.471
46.01000 223.826
46.18000 206.191
46.35000 210.998
46.52000 203.013
46.69000 202.340
46.86000 194.354
47.03000 205.957
47.20000 195.068
47.37000 196.028
47.54000 180.905
47.71000 180.789
47.88000 193.079
48.05000 180.841
48.22000 182.919
48.39000 174.459
48.56000 189.949
48.73000 189.265
48.90000 188.598
49.07000 192.597
49.24000 173.624
49.41000 190.903
49.58000 183.831
49.75000 175.375
49.92000 182.863
50.09000 178.573
50.26000 185.589
50.43000 210.050
50.60000 266.266
50.77000 293.215
50.94000 234.311
51.11000 200.341
51.28000 188.395
51.45000 178.636
51.62000 175.631
51.79000 164.144
51.96000 157.990
52.13000 160.775
52.30000 151.138
52.47000 156.593
52.64000 166.215
52.81000 160.240
52.98000 153.663
53.15000 168.739
53.32000 174.861
53.49000 155.967
53.66000 158.607
53.83000 161.729
54.00000 166.999
54.17000 165.034
54.34000 160.844
54.51000 158.096
54.68000 154.478
54.85000 168.136
55.02000 162.799
55.19000 169.287
55.36000 186.834
55.53000 238.280
55.70000 356.957
55.87000 541.015
56.04000 523.719
56.21000 376.747
56.38000 241.718
56.55000 187.431
56.72000 166.680
56.89000 154.874
57.06000 154.420
57.23000 143.412
57.40000 141.091
57.57000 156.630
57.74000 142.390
57.91000 137.153
58.08000 150.113
58.25000 144.763
58.42000 142.362
58.59000 139.825
58.76000 136.943
58.93000 127.915
59.10000 140.826
59.27000 141.642
59.44000 135.987
59.61000 141.162
59.78000 137.874
59.95000 143.704
60.12000 127.977
60.29000 134.484
60.46000 128.512
60.63000 138.221
60.80000 132.355
60.97000 139.587
61.14000 143.768
61.31000 140.234
61.48000 152.042
61.65000 347.629
61.82000 262.433
61.99000 150.120
62.16000 150.867
62.33000 139.364
62.50000 155.021
62.67000 150.367
62.84000 146.463
63.01000 149.524
63.18000 147.943
63.35000 152.458
63.52000 141.744
63.69000 150.256
63.86000 153.665
64.03000 163.163
64.20000 161.014
64.37000 166.725
64.54000 176.910
64.71000 177.809
64.88000 185.776
65.05000 228.174
65.22000 247.031
65.39000 337.444
65.56000 457.954
65.73000 891.781
65.90000 1676.634
66.07000 536.475
66.24000 369.624
66.41000 586.340
66.58000 448.842
66.75000 377.678
66.92000 386.913
67.09000 413.931
67.26000 431.484
67.43000 477.517
67.60000 509.064
67.77000 565.158
67.94000 597.049
68.11000 686.230
68.28000 750.649
68.45000 917.055
68.62000 1383.330
68.79000 2817.452
68.96000 17877.762
69.13000 97037.852
69.30000 61717.816
69.47000 17190.752
69.64000 1846.662
69.81000 1148.670
69.98000 916.442
70.00000 874.694

File: BTO_Mapping_Theta2Theta_22-09-2025_001_50_-24-940_-31-273.xy
20.00000 598.844
20.17000 583.761
20.34000 580.453
20.51000 565.689
20.68000 564.587
20.85000 568.839
21.02000 554.247
21.19000 556.383
21.36000 569.876
21.53000 555.311
21.70000 580.309
21.87000 704.539
22.04000 805.354
22.21000 751.130
22.38000 610.987
22.55000 548.073
22.72000 555.629
22.89000 523.124
23.06000 507.962
23.23000 509.667
23.40000 507.980
23.57000 533.997
23.74000 504.345
23.91000 500.740
24.08000 479.768
24.25000 510.434
24.42000 482.953
24.59000 484.449
24.76000 485.833
24.93000 473.173
25.10000 488.924
25.27000 482.018
25.44000 476.223
25.61000 470.922
25.78000 489.633
25.95000 470.335
26.12000 472.090
26.29000 461.603
26.46000 489.147
26.63000 440.424
26.80000 440.381
26.97000 467.640
27.14000 452.491
27.31000 439.741
27.48000 447.779
27.65000 451.141
27.82000 441.982
27.99000 440.327
28.16000 442.566
28.33000 452.288
28.50000 438.048
28.67000 425.482
28.84000 431.893
29.01000 419.123
29.18000 426.180
29.35000 411.763
29.52000 419.505
29.69000 419.279
29.86000 435.201
30.03000 477.750
30.20000 442.515
30.37000 441.033
30.54000 443.964
30.71000 465.205
30.88000 494.426
31.05000 657.440
31.22000 2041.312
31.39000 4531.163
31.56000 2881.260
31.73000 996.379
31.90000 535.067
32.07000 454.288
32.24000 429.501
32.41000 415.621
32.58000 403.224
32.75000 396.218
32.92000 462.353
33.09000 416.887
33.26000 381.144
33.43000 345.062
33.60000 346.380
33.77000 364.673
33.94000 338.358
34.11000 326.961
34.28000 336.137
34.45000 329.198
34.62000 333.162
34.79000 332.024
34.96000 328.465
35.13000 322.420
35.30000 316.489
35.47000 337.502
35.64000 319.727
35.81000 317.823
35.98000 316.461
36.15000 300.965
36.32000 290.983
36.49000 310.745
36.66000 303.964
36.83000 292.824
37.00000 320.087
37.17000 299.865
37.34000 298.322
37.51000 294.129
37.68000 309.450
37.85000 304.392
38.02000 308.169
38.19000 321.491
38.36000 395.230
38.53000 543.557
38.70000 736.526
38.87000 554.037
39.04000 389.392
39.21000 312.684
39.38000 275.581
39.55000 273.513
39.72000 270.651
39.89000 268.545
40.06000 270.903
40.23000 284.907
40.40000 266.067
40.57000 267.453
40.74000 243.207
40.91000 259.350
41.08000 258.637
41.25000 256.429
41.42000 241.210
41.59000 251.375
41.76000 244.748
41.93000 233.923
42.10000 245.352
42.27000 258.983
42.44000 243.023
42.61000 235.135
42.78000 232.190
42.95000 238.195
43.12000 226.511
43.29000 229.281
43.46000 233.906
43.63000 222.546
43.80000 232.158
43.97000 227.288
44.14000 244.713
44.31000 240.029
44.48000 250.845
44.65000 283.906
44.82000 368.361
44.99000 456.832
45.16000 436.645
45.33000 331.984
45.50000 286.777
45.67000 253.437
45.84000 226.788
46.01000 225.794
46.18000 199.166
46.35000 202.003
46.52000 204.473
46.69000 203.605
46.86000 203.372
47.03000 200.557
47.20000 200.566
47.37000 197.546
47.54000 193.311
47.71000 183.577
47.88000 186.416
48.05000 179.112
48.22000 179.748
48.39000 175.818
48.56000 188.144
48.73000 177.569
48.90000 180.515
49.07000 175.598
49.24000 184.821
49.41000 194.449
49.58000 175.672
49.75000 177.857
49.92000 184.325
50.09000 176.866
50.26000 182.024
50.43000 235.628
50.60000 284.493
50.77000 282.614
50.94000 232.613
51.11000 216.867
51.28000 183.970
51.45000 177.975
51.62000 185.269
51.79000 160.660
51.96000 161.359
52.13000 158.425
52.30000 165.184
52.47000 170.123
52.64000 161.210
52.81000 160.233
52.98000 160.756
53.15000 174.261
53.32000 164.884
53.49000 165.715
53.66000 152.035
53.83000 175.884
54.00000 166.089
54.17000 150.697
54.34000 163.321
54.51000 164.476
54.68000 162.132
54.85000 170.976
55.02000 159.211
55.19000 174.823
55.36000 181.306
55.53000 230.963
55.70000 382.168
55.87000 540.576
56.04000 481.165
56.21000 316.085
56.38000 229.618
56.55000 185.939
56.72000 167.701
56.89000 150.282
57.06000 151.386
57.23000 144.705
57.40000 153.187
57.57000 145.510
57.74000 150.615
57.91000 139.255
58.08000 149.919
58.25000 146.422
58.42000 145.775
58.59000 149.101
58.76000 131.551
58.93000 137.692
59.10000 137.217
59.27000 134.349
59.44000 143.282
59.61000 146.095
59.78000 134.295
59.95000 135.060
60.12000 141.003
60.29000 132.129
60.46000 138.159
60.63000 133.339
60.80000 127.919
60.97000 142.598
61.14000 142.593
61.31000 142.227
61.48000 152.128
61.65000 356.731
61.82000 285.993
61.99000 147.491
62.16000 142.459
62.33000 140.920
62.50000 156.113
62.67000 145.486
62.84000 131.612
63.01000 148.629
63.18000 160.087
63.35000 155.216
63.52000 150.715
63.69000 156.417
63.86000 148.569
64.03000 161.345
64.20000 172.057
64.37000 167.445
64.54000 177.896
64.71000 178.829
64.88000 197.164
65.05000 214.992
65.22000 271.993
65.39000 385.835
65.56000 504.487
65.73000 838.619
65.90000 1657.887
66.07000 580.124
66.24000 394.049
66.41000 606.067
66.58000 452.603
66.75000 359.699
66.92000 395.181
67.09000 422.604
67.26000 452.422
67.43000 467.291
67.60000 529.754
67.77000 562.878
67.94000 590.359
68.11000 650.690
68.28000 748.693
68.45000 909.178
68.62000 1267.768
68.79000 2714.409
68.96000 15212.413
69.13000 95826.102
69.30000 63949.367
69.47000 19382.852
69.64000 1900.394
69.81000 1128.075
69.98000 869.360
70.00000 847.442

File: BTO_Mapping_Theta2Theta_22-09-2025_001_52_-2-225_-9-749.xy
20.00000 585.717
20.17000 576.848
20.34000 572.610
20.51000 558.164
20.68000 562.649
20.85000 558.366
21.02000 543.661
21.19000 558.289
21.36000 579.487
21.53000 572.773
21.70000 589.610
21.87000 679.597
22.04000 836.141
22.21000 759.839
22.38000 626.135
22.55000 561.323
22.72000 542.785
22.89000 503.086
23.06000 514.061
23.23000 522.674
23.40000 527.045
23.57000 510.831
23.74000 507.807
23.91000 502.349
24.08000 508.146
24.25000 478.853
24.42000 492.266
24.59000 491.450
24.76000 486.251
24.93000 489.562
25.10000 478.249
25.27000 483.078
25.44000 486.562
25.61000 478.776
25.78000 458.912
25.95000 456.914
26.12000 469.110
26.29000 449.682
26.46000 443.839
26.63000 460.397
26.80000 433.066
26.97000 446.406
27.14000 451.724
27.31000 451.060
27.48000 442.798
27.65000 437.629
27.82000 443.240
27.99000 437.806
28.16000 456.092
28.33000 421.222
28.50000 434.185
28.67000 425.897
28.84000 418.755
29.01000 427.045
29.18000 411.820
29.35000 419.997
29.52000 419.311
29.69000 413.762
29.86000 431.108
30.03000 452.610
30.20000 454.488
30.37000 425.734
30.54000 451.021
30.71000 487.432
30.88000 510.615
31.05000 738.659
31.22000 1838.786
31.39000 3469.435
31.56000 2152.425
31.73000 853.415
31.90000 528.658
32.07000 443.431
32.24000 435.528
32.41000 401.662
32.58000 399.126
32.75000 400.376
32.92000 475.394
33.09000 399.529
33.26000 367.418
33.43000 366.651
33.60000 351.962
33.77000 369.840
33.94000 352.659
34.11000 332.141
34.28000 337.410
34.45000 340.986
34.62000 329.272
34.79000 301.345
34.96000 318.938
35.13000 323.829
35.30000 321.301
35.47000 316.941
35.64000 313.393
35.81000 322.220
35.98000 304.637
36.15000 308.939
36.32000 313.959
36.49000 296.129
36.66000 301.193
36.83000 298.357
37.00000 327.313
37.17000 310.412
37.34000 300.439
37.51000 300.372
37.68000 300.255
37.85000 305.402
38.02000 308.364
38.19000 322.014
38.36000 369.989
38.53000 583.788
38.70000 982.468
38.87000 697.727
39.04000 387.225
39.21000 319.393
39.38000 286.007
39.55000 281.007
39.72000 274.388
39.89000 276.957
40.06000 271.237
40.23000 261.790
40.40000 271.639
40.57000 253.094
40.74000 263.023
40.91000 256.152
41.08000 246.410
41.25000 240.707
41.42000 246.212
41.59000 240.649
41.76000 241.600
41.93000 242.217
42.10000 225.915
42.27000 261.881
42.44000 229.349
42.61000 233.108
42.78000 250.040
42.95000 235.615
43.12000 244.922
43.29000 244.700
43.46000 233.030
43.63000 238.306
43.80000 241.016
43.97000 217.003
44.14000 238.113
44.31000 241.236
44.48000 246.884
44.65000 274.133
44.82000 330.929
44.99000 425.566
45.16000 462.831
45.33000 347.512
45.50000 301.662
45.67000 270.969
45.84000 242.082
46.01000 213.568
46.18000 211.545
46.35000 212.035
46.52000 205.561
46.69000 207.704
46.86000 199.511
47.03000 199.433
47.20000 195.842
47.37000 200.418
47.54000 199.844
47.71000 190.104
47.88000 186.984
48.05000 173.119
48.22000 173.893
48.39000 195.545
48.56000 185.276
48.73000 179.880
48.90000 168.874
49.07000 178.505
49.24000 180.944
49.41000 179.192
49.58000 182.593
49.75000 179.768
49.92000 178.435
50.09000 183.092
50.26000 181.438
50.43000 188.109
50.60000 241.175
50.77000 250.828
50.94000 224.739
51.11000 195.263
51.28000 180.945
51.45000 174.706
51.62000 170.248
51.79000 165.723
51.96000 165.132
52.13000 176.784
52.30000 166.174
52.47000 169.767
52.64000 161.723
52.81000 168.024
52.98000 163.639
53.15000 152.845
53.32000 159.887
53.49000 146.869
53.66000 163.274
53.83000 156.933
54.00000 150.892
54.17000 158.802
54.34000 154.028
54.51000 152.080
54.68000 164.922
54.85000 161.002
55.02000 155.326
55.19000 182.357
55.36000 180.798
55.53000 206.530
55.70000 312.896
55.87000 516.570
56.04000 553.792
56.21000 376.311
56.38000 268.411
56.55000 200.167
56.72000 166.710
56.89000 161.534
57.06000 152.523
57.23000 147.613
57.40000 150.216
57.57000 146.751
57.74000 140.773
57.91000 151.329
58.08000 140.265
58.25000 147.536
58.42000 145.582
58.59000 137.819
58.76000 140.342
58.93000 126.070
59.10000 140.047
59.27000 134.770
59.44000 126.900
59.61000 131.946
59.78000 134.639
59.95000 134.691
60.12000 127.935
60.29000 134.885
60.46000 131.024
60.63000 137.020
60.80000 141.095
60.97000 129.117
61.14000 129.907
61.31000 135.660
61.48000 148.988
61.65000 320.169
61.82000 227.317
61.99000 139.416
62.16000 149.981
62.33000 150.402
62.50000 152.998
62.67000 144.746
62.84000 147.540
63.01000 159.673
63.18000 145.403
63.35000 160.571
63.52000 154.143
63.69000 161.638
63.86000 147.769
64.03000 169.808
64.20000 172.099
64.37000 167.292
64.54000 160.768
64.71000 176.174
64.88000 197.612
65.05000 223.626
65.22000 245.120
65.39000 332.399
65.56000 446.577
65.73000 828.447
65.90000 1442.452
66.07000 463.272
66.24000 363.402
66.41000 540.127
66.58000 396.361
66.75000 358.463
66.92000 363.071
67.09000 394.615
67.26000 423.806
67.43000 453.792
67.60000 473.455
67.77000 528.029
67.94000 586.552
68.11000 634.501
68.28000 701.340
68.45000 850.880
68.62000 1264.038
68.79000 2507.051
68.96000 18491.486
69.13000 82097.875
69.30000 49503.199
69.47000 12352.788
69.64000 1577.474
69.81000 1022.768
69.98000 796.983
70.00000 772.807

File: BTO_Mapping_Theta2Theta_22-09-2025_001_53_-4-450_-19-499.xy
20.00000 575.593
20.17000 563.434
20.34000 559.288
20.51000 560.050
20.68000 549.161
20.85000 548.854
21.02000 560.072
21.19000 537.701
21.36000 553.022
21.53000 549.493
21.70000 593.525
21.87000 708.050
22.04000 834.361
22.21000 776.323
22.38000 625.246
22.55000 567.432
22.72000 554.667
22.89000 552.185
23.06000 512.315
23.23000 506.912
23.40000 503.267
23.57000 500.078
23.74000 501.058
23.91000 499.042
24.08000 476.836
24.25000 507.204
24.42000 483.632
24.59000 504.629
24.76000 486.890
24.93000 473.183
25.10000 475.868
25.27000 459.368
25.44000 483.868
25.61000 481.480
25.78000 463.185
25.95000 479.662
26.12000 460.166
26.29000 447.825
26.46000 456.560
26.63000 448.456
26.80000 445.894
26.97000 462.428
27.14000 446.116
27.31000 446.399
27.48000 443.541
27.65000 421.827
27.82000 434.575
27.99000 430.731
28.16000 432.220
28.33000 439.279
28.50000 428.728
28.67000 423.498
28.84000 426.192
29.01000 427.858
29.18000 422.055
29.35000 403.635
29.52000 416.518
29.69000 426.723
29.86000 431.642
30.03000 450.206
30.20000 453.523
30.37000 419.844
30.54000 454.456
30.71000 461.474
30.88000 514.355
31.05000 686.402
31.22000 1712.047
31.39000 3423.758
31.56000 2226.790
31.73000 892.886
31.90000 547.604
32.07000 447.532
32.24000 417.459
32.41000 410.270
32.58000 396.940
32.75000 404.431
32.92000 452.773
33.09000 398.318
33.26000 355.147
33.43000 359.058
33.60000 355.777
33.77000 338.728
33.94000 349.618
34.11000 337.562
34.28000 330.475
34.45000 341.805
34.62000 334.783
34.79000 333.938
34.96000 338.962
35.13000 311.526
35.30000 314.761
35.47000 311.373
35.64000 318.698
35.81000 309.271
35.98000 315.237
36.15000 300.477
36.32000 312.094
36.49000 307.531
36.66000 302.438
36.83000 297.562
37.00000 309.340
37.17000 297.556
37.34000 305.469
37.51000 305.283
37.68000 307.015
37.85000 291.705
38.02000 302.348
38.19000 307.248
38.36000 363.603
38.53000 553.255
38.70000 938.949
38.87000 705.385
39.04000 392.461
39.21000 323.037
39.38000 291.627
39.55000 289.808
39.72000 260.311
39.89000 277.925
40.06000 265.714
40.23000 261.216
40.40000 248.184
40.57000 272.864
40.74000 250.328
40.91000 260.366
41.08000 250.566
41.25000 251.230
41.42000 248.340
41.59000 248.393
41.76000 247.286
41.93000 235.754
42.10000 233.631
42.27000 246.853
42.44000 225.242
42.61000 234.481
42.78000 238.758
42.95000 231.201
43.12000 231.015
43.29000 221.227
43.46000 218.534
43.63000 226.019
43.80000 224.637
43.97000 221.831
44.14000 219.565
44.31000 241.532
44.48000 239.766
44.65000 254.570
44.82000 320.270
44.99000 448.236
45.16000 439.113
45.33000 363.453
45.50000 293.634
45.67000 272.321
45.84000 252.164
46.01000 225.358
46.18000 205.715
46.35000 233.106
46.52000 195.989
46.69000 198.200
46.86000 197.808
47.03000 195.874
47.20000 195.814
47.37000 194.750
47.54000 183.034
47.71000 187.690
47.88000 185.632
48.05000 178.357
48.22000 182.681
48.39000 188.212
48.56000 182.005
48.73000 184.068
48.90000 176.566
49.07000 192.282
49.24000 178.767
49.41000 180.028
49.58000 164.282
49.75000 179.096
49.92000 171.395
50.09000 179.094
50.26000 183.468
50.43000 198.835
50.60000 250.924
50.77000 266.532
50.94000 237.112
51.11000 195.449
51.28000 188.054
51.45000 177.689
51.62000 167.074
51.79000 159.898
51.96000 174.617
52.13000 158.769
52.30000 163.664
52.47000 168.861
52.64000 164.609
52.81000 159.052
52.98000 159.459
53.15000 159.561
53.32000 159.115
53.49000 160.809
53.66000 156.859
53.83000 150.604
54.00000 159.229
54.17000 151.978
54.34000 165.649
54.51000 161.775
54.68000 166.390
54.85000 160.713
55.02000 144.355
55.19000 168.402
55.36000 174.996
55.53000 195.229
55.70000 306.457
55.87000 505.310
56.04000 525.665
56.21000 380.083
56.38000 261.698
56.55000 195.468
56.72000 169.274
56.89000 169.972
57.06000 151.201
57.23000 147.012
57.40000 142.760
57.57000 148.252
57.74000 139.546
57.91000 145.373
58.08000 150.500
58.25000 141.511
58.42000 150.382
58.59000 141.630
58.76000 135.418
58.93000 131.513
59.10000 142.363
59.27000 122.006
59.44000 139.138
59.61000 146.507
59.78000 133.703
59.95000 138.907
60.12000 136.017
60.29000 135.947
60.46000 131.097
60.63000 140.036
60.80000 139.909
60.97000 135.195
61.14000 140.328
61.31000 141.672
61.48000 146.546
61.65000 343.065
61.82000 228.192
61.99000 149.706
62.16000 147.948
62.33000 151.750
62.50000 152.705
62.67000 147.938
62.84000 142.698
63.01000 147.885
63.18000 148.279
63.35000 143.199
63.52000 140.241
63.69000 150.304
63.86000 166.471
64.03000 157.963
64.20000 159.956
64.37000 165.473
64.54000 169.759
64.71000 177.509
64.88000 185.830
65.05000 214.487
65.22000 228.441
65.39000 312.509
65.56000 418.505
65.73000 808.038
65.90000 1457.535
66.07000 479.767
66.24000 394.308
66.41000 535.459
66.58000 427.815
66.75000 348.904
66.92000 364.621
67.09000 388.385
67.26000 422.858
67.43000 450.406
67.60000 500.258
67.77000 520.900
67.94000 579.863
68.11000 635.767
68.28000 708.369
68.45000 855.591
68.62000 1262.348
68.79000 2561.880
68.96000 17092.992
69.13000 83554.227
69.30000 51935.824
69.47000 13787.423
69.64000 1669.503
69.81000 1016.203
69.98000 816.806
70.00000 794.685