Folder: Master-Thesis/XRD/22-09-2025 Dep 2/XY Data (part 8)

File: BTO_Mapping_Theta2Theta_22-09-2025_001_63_12-470_-15-637.xy
20.00000 567.051
20.17000 581.285
20.34000 567.897
20.51000 558.178
20.68000 563.805
20.85000 562.192
21.02000 562.560
21.19000 537.805
21.36000 554.754
21.53000 554.888
21.70000 581.874
21.87000 642.177
22.04000 743.452
22.21000 725.937
22.38000 599.061
22.55000 546.429
22.72000 532.291
22.89000 523.997
23.06000 511.078
23.23000 527.710
23.40000 514.219
23.57000 526.287
23.74000 525.409
23.91000 517.460
24.08000 532.754
24.25000 517.671
24.42000 505.157
24.59000 479.428
24.76000 484.999
24.93000 461.944
25.10000 495.564
25.27000 495.817
25.44000 475.914
25.61000 464.840
25.78000 456.184
25.95000 475.396
26.12000 454.445
26.29000 451.230
26.46000 438.451
26.63000 451.241
26.80000 457.674
26.97000 459.525
27.14000 462.114
27.31000 451.889
27.48000 445.569
27.65000 442.151
27.82000 442.821
27.99000 449.110
28.16000 432.289
28.33000 457.148
28.50000 429.573
28.67000 435.745
28.84000 423.267
29.01000 402.371
29.18000 427.386
29.35000 433.111
29.52000 422.258
29.69000 408.031
29.86000 423.609
30.03000 431.427
30.20000 437.796
30.37000 429.482
30.54000 438.455
30.71000 449.037
30.88000 502.714
31.05000 681.689
31.22000 1619.252
31.39000 3252.250
31.56000 2133.969
31.73000 837.891
31.90000 528.166
32.07000 441.682
32.24000 431.858
32.41000 415.371
32.58000 402.863
32.75000 398.247
32.92000 416.321
33.09000 389.538
33.26000 350.792
33.43000 352.599
33.60000 353.937
33.77000 344.884
33.94000 344.252
34.11000 338.906
34.28000 345.812
34.45000 344.347
34.62000 334.372
34.79000 328.882
34.96000 339.950
35.13000 318.034
35.30000 339.044
35.47000 307.567
35.64000 312.603
35.81000 306.342
35.98000 300.287
36.15000 307.157
36.32000 294.809
36.49000 304.192
36.66000 304.464
36.83000 301.374
37.00000 299.686
37.17000 311.706
37.34000 307.389
37.51000 292.731
37.68000 289.097
37.85000 308.741
38.02000 291.548
38.19000 316.252
38.36000 355.145
38.53000 547.112
38.70000 989.963
38.87000 831.185
39.04000 416.309
39.21000 304.251
39.38000 298.281
39.55000 279.607
39.72000 263.176
39.89000 278.414
40.06000 257.590
40.23000 256.054
40.40000 254.257
40.57000 253.549
40.74000 241.365
40.91000 246.362
41.08000 260.521
41.25000 244.838
41.42000 246.931
41.59000 243.728
41.76000 252.424
41.93000 246.867
42.10000 229.712
42.27000 228.371
42.44000 236.768
42.61000 249.493
42.78000 236.781
42.95000 237.598
43.12000 229.116
43.29000 230.551
43.46000 228.404
43.63000 229.745
43.80000 236.906
43.97000 218.327
44.14000 228.243
44.31000 225.739
44.48000 224.739
44.65000 254.590
44.82000 281.893
44.99000 328.328
45.16000 376.195
45.33000 339.293
45.50000 294.269
45.67000 248.374
45.84000 227.283
46.01000 223.550
46.18000 204.871
46.35000 202.025
46.52000 188.952
46.69000 208.631
46.86000 200.458
47.03000 195.896
47.20000 200.561
47.37000 194.525
47.54000 186.913
47.71000 195.086
47.88000 191.304
48.05000 171.423
48.22000 193.681
48.39000 182.415
48.56000 177.979
48.73000 187.170
48.90000 197.327
49.07000 178.681
49.24000 179.781
49.41000 171.183
49.58000 185.927
49.75000 176.271
49.92000 175.815
50.09000 181.658
50.26000 178.918
50.43000 195.691
50.60000 234.991
50.77000 273.042
50.94000 223.601
51.11000 196.150
51.28000 179.084
51.45000 178.855
51.62000 162.600
51.79000 164.699
51.96000 161.270
52.13000 164.153
52.30000 151.839
52.47000 158.458
52.64000 160.934
52.81000 157.035
52.98000 152.580
53.15000 159.336
53.32000 165.039
53.49000 154.180
53.66000 154.384
53.83000 156.065
54.00000 152.474
54.17000 161.193
54.34000 160.637
54.51000 144.482
54.68000 159.107
54.85000 154.484
55.02000 168.016
55.19000 162.358
55.36000 177.015
55.53000 196.369
55.70000 257.861
55.87000 443.729
56.04000 535.775
56.21000 351.568
56.38000 250.051
56.55000 191.739
56.72000 164.914
56.89000 158.781
57.06000 149.981
57.23000 148.668
57.40000 143.431
57.57000 152.493
57.74000 145.343
57.91000 148.833
58.08000 152.313
58.25000 143.055
58.42000 141.454
58.59000 130.492
58.76000 143.681
58.93000 153.863
59.10000 152.414
59.27000 141.705
59.44000 138.483
59.61000 135.564
59.78000 126.536
59.95000 129.907
60.12000 133.796
60.29000 127.492
60.46000 127.693
60.63000 130.104
60.80000 134.387
60.97000 125.944
61.14000 138.110
61.31000 140.857
61.48000 156.432
61.65000 270.356
61.82000 211.841
61.99000 143.532
62.16000 147.409
62.33000 152.681
62.50000 142.360
62.67000 145.185
62.84000 154.965
63.01000 158.243
63.18000 142.861
63.35000 149.843
63.52000 153.094
63.69000 148.749
63.86000 159.450
64.03000 147.466
64.20000 163.979
64.37000 169.915
64.54000 161.645
64.71000 179.773
64.88000 180.900
65.05000 194.182
65.22000 230.111
65.39000 297.959
65.56000 407.145
65.73000 694.008
65.90000 1180.380
66.07000 409.697
66.24000 319.804
66.41000 464.547
66.58000 366.424
66.75000 308.249
66.92000 341.960
67.09000 378.150
67.26000 389.234
67.43000 408.847
67.60000 448.212
67.77000 497.260
67.94000 518.396
68.11000 571.865
68.28000 629.249
68.45000 749.942
68.62000 1097.360
68.79000 2027.582
68.96000 12650.398
69.13000 65232.875
69.30000 39807.434
69.47000 10396.775
69.64000 1393.803
69.81000 902.987
69.98000 714.808
70.00000 716.885

File: BTO_Mapping_Theta2Theta_22-09-2025_001_65_24-940_-31-273.xy
20.00000 565.754
20.17000 592.548
20.34000 554.741
20.51000 546.420
20.68000 554.257
20.85000 547.099
21.02000 557.364
21.19000 544.523
21.36000 535.237
21.53000 536.743
21.70000 581.826
21.87000 600.302
22.04000 681.140
22.21000 701.716
22.38000 626.115
22.55000 571.462
22.72000 538.232
22.89000 505.597
23.06000 520.188
23.23000 508.214
23.40000 506.824
23.57000 500.031
23.74000 514.435
23.91000 541.533
24.08000 542.160
24.25000 486.301
24.42000 492.033
24.59000 494.470
24.76000 485.797
24.93000 479.935
25.10000 469.813
25.27000 485.525
25.44000 494.399
25.61000 464.150
25.78000 452.561
25.95000 460.028
26.12000 463.782
26.29000 440.722
26.46000 461.193
26.63000 455.601
26.80000 448.480
26.97000 436.732
27.14000 457.440
27.31000 437.445
27.48000 430.915
27.65000 438.611
27.82000 427.995
27.99000 432.537
28.16000 426.365
28.33000 425.924
28.50000 417.363
28.67000 418.985
28.84000 428.704
29.01000 418.080
29.18000 412.730
29.35000 415.225
29.52000 415.175
29.69000 398.961
29.86000 428.702
30.03000 449.593
30.20000 443.337
30.37000 417.796
30.54000 431.167
30.71000 438.872
30.88000 449.769
31.05000 574.388
31.22000 1055.594
31.39000 2381.914
31.56000 1938.472
31.73000 848.749
31.90000 512.640
32.07000 441.601
32.24000 401.971
32.41000 392.507
32.58000 377.414
32.75000 373.224
32.92000 385.135
33.09000 366.127
33.26000 348.983
33.43000 342.091
33.60000 349.678
33.77000 338.760
33.94000 337.522
34.11000 351.425
34.28000 334.764
34.45000 348.517
34.62000 343.455
34.79000 331.716
34.96000 327.354
35.13000 314.627
35.30000 299.983
35.47000 311.218
35.64000 315.017
35.81000 306.693
35.98000 316.826
36.15000 296.884
36.32000 298.222
36.49000 290.171
36.66000 282.670
36.83000 304.947
37.00000 323.125
37.17000 303.041
37.34000 279.883
37.51000 286.368
37.68000 280.466
37.85000 296.790
38.02000 275.072
38.19000 289.993
38.36000 314.454
38.53000 421.273
38.70000 885.744
38.87000 937.102
39.04000 454.576
39.21000 314.479
39.38000 299.779
39.55000 278.815
39.72000 262.823
39.89000 265.700
40.06000 256.911
40.23000 262.035
40.40000 259.393
40.57000 234.819
40.74000 260.367
40.91000 265.538
41.08000 239.062
41.25000 239.437
41.42000 251.310
41.59000 243.713
41.76000 238.691
41.93000 245.532
42.10000 239.523
42.27000 243.580
42.44000 222.952
42.61000 224.670
42.78000 219.921
42.95000 240.925
43.12000 237.887
43.29000 229.366
43.46000 221.191
43.63000 218.685
43.80000 218.151
43.97000 236.426
44.14000 228.952
44.31000 227.584
44.48000 234.880
44.65000 240.429
44.82000 258.230
44.99000 281.287
45.16000 349.591
45.33000 332.708
45.50000 278.520
45.67000 267.468
45.84000 239.370
46.01000 225.457
46.18000 208.412
46.35000 224.538
46.52000 204.645
46.69000 208.889
46.86000 195.128
47.03000 196.648
47.20000 189.823
47.37000 197.664
47.54000 174.252
47.71000 193.533
47.88000 174.061
48.05000 193.630
48.22000 191.296
48.39000 178.645
48.56000 189.792
48.73000 181.938
48.90000 179.599
49.07000 187.615
49.24000 182.364
49.41000 184.999
49.58000 169.331
49.75000 178.874
49.92000 181.555
50.09000 179.603
50.26000 178.636
50.43000 191.185
50.60000 207.680
50.77000 245.087
50.94000 236.098
51.11000 192.868
51.28000 172.378
51.45000 162.768
51.62000 164.923
51.79000 163.951
51.96000 148.484
52.13000 165.432
52.30000 160.020
52.47000 151.131
52.64000 159.066
52.81000 152.063
52.98000 149.717
53.15000 148.561
53.32000 154.280
53.49000 162.088
53.66000 155.464
53.83000 153.197
54.00000 148.303
54.17000 158.940
54.34000 156.632
54.51000 138.634
54.68000 153.087
54.85000 153.248
55.02000 170.306
55.19000 159.553
55.36000 163.212
55.53000 186.326
55.70000 220.709
55.87000 388.110
56.04000 551.092
56.21000 421.827
56.38000 265.950
56.55000 189.631
56.72000 162.785
56.89000 157.247
57.06000 154.307
57.23000 144.454
57.40000 140.123
57.57000 154.777
57.74000 143.055
57.91000 144.710
58.08000 144.427
58.25000 126.660
58.42000 137.750
58.59000 137.343
58.76000 126.955
58.93000 136.034
59.10000 134.419
59.27000 135.167
59.44000 139.896
59.61000 134.005
59.78000 138.435
59.95000 134.593
60.12000 126.305
60.29000 133.988
60.46000 127.892
60.63000 135.246
60.80000 139.161
60.97000 139.192
61.14000 136.333
61.31000 141.058
61.48000 142.448
61.65000 262.764
61.82000 220.950
61.99000 144.002
62.16000 137.701
62.33000 143.578
62.50000 141.917
62.67000 142.046
62.84000 144.358
63.01000 145.741
63.18000 143.439
63.35000 138.747
63.52000 140.430
63.69000 156.570
63.86000 149.523
64.03000 155.903
64.20000 157.898
64.37000 164.777
64.54000 163.633
64.71000 174.896
64.88000 178.953
65.05000 189.009
65.22000 205.852
65.39000 245.582
65.56000 339.562
65.73000 574.313
65.90000 1048.011
66.07000 413.972
66.24000 321.518
66.41000 442.766
66.58000 361.481
66.75000 305.072
66.92000 337.338
67.09000 339.555
67.26000 381.814
67.43000 416.382
67.60000 434.800
67.77000 454.486
67.94000 503.204
68.11000 565.546
68.28000 618.960
68.45000 700.889
68.62000 973.470
68.79000 1845.613
68.96000 8647.573
69.13000 57751.789
69.30000 37584.133
69.47000 11328.043
69.64000 1362.048
69.81000 850.924
69.98000 669.935
70.00000 673.680

File: BTO_Mapping_Theta2Theta_22-09-2025_001_67_9-010_-4-339.xy
20.00000 579.765
20.17000 568.511
20.34000 548.936
20.51000 558.222
20.68000 568.096
20.85000 551.724
21.02000 565.255
21.19000 551.242
21.36000 550.427
21.53000 559.077
21.70000 577.062
21.87000 650.017
22.04000 791.544
22.21000 747.652
22.38000 613.161
22.55000 565.503
22.72000 535.321
22.89000 536.675
23.06000 525.688
23.23000 518.559
23.40000 525.823
23.57000 509.161
23.74000 507.387
23.91000 529.222
24.08000 511.099
24.25000 516.503
24.42000 516.698
24.59000 501.576
24.76000 480.987
24.93000 471.915
25.10000 473.522
25.27000 481.095
25.44000 480.445
25.61000 482.176
25.78000 478.793
25.95000 466.876
26.12000 475.348
26.29000 463.522
26.46000 441.544
26.63000 458.750
26.80000 468.503
26.97000 434.109
27.14000 433.942
27.31000 451.977
27.48000 447.167
27.65000 443.839
27.82000 431.178
27.99000 436.923
28.16000 433.232
28.33000 436.845
28.50000 428.241
28.67000 429.343
28.84000 444.167
29.01000 429.698
29.18000 420.889
29.35000 414.782
29.52000 423.686
29.69000 444.151
29.86000 436.717
30.03000 453.503
30.20000 440.300
30.37000 442.103
30.54000 450.161
30.71000 470.314
30.88000 518.886
31.05000 724.391
31.22000 1756.208
31.39000 3378.287
31.56000 2052.108
31.73000 828.248
31.90000 530.957
32.07000 466.630
32.24000 424.879
32.41000 415.644
32.58000 391.362
32.75000 373.693
32.92000 425.241
33.09000 387.973
33.26000 362.660
33.43000 371.843
33.60000 343.820
33.77000 333.806
33.94000 344.675
34.11000 354.165
34.28000 343.394
34.45000 322.420
34.62000 322.838
34.79000 342.448
34.96000 339.968
35.13000 315.033
35.30000 322.667
35.47000 309.360
35.64000 299.665
35.81000 308.943
35.98000 308.501
36.15000 301.970
36.32000 311.427
36.49000 292.327
36.66000 299.129
36.83000 307.733
37.00000 308.111
37.17000 315.627
37.34000 305.041
37.51000 284.975
37.68000 291.149
37.85000 288.740
38.02000 298.809
38.19000 306.452
38.36000 351.025
38.53000 553.688
38.70000 991.163
38.87000 786.398
39.04000 397.034
39.21000 317.765
39.38000 299.433
39.55000 274.032
39.72000 273.787
39.89000 282.779
40.06000 254.449
40.23000 270.741
40.40000 261.717
40.57000 259.053
40.74000 264.220
40.91000 243.179
41.08000 251.049
41.25000 246.456
41.42000 243.463
41.59000 239.623
41.76000 252.009
41.93000 237.587
42.10000 249.379
42.27000 231.520
42.44000 224.780
42.61000 240.174
42.78000 225.817
42.95000 233.732
43.12000 230.677
43.29000 237.467
43.46000 224.901
43.63000 224.075
43.80000 227.801
43.97000 223.609
44.14000 234.086
44.31000 240.347
44.48000 233.762
44.65000 249.973
44.82000 285.599
44.99000 371.591
45.16000 412.305
45.33000 344.599
45.50000 287.728
45.67000 258.346
45.84000 235.678
46.01000 231.659
46.18000 217.893
46.35000 214.294
46.52000 213.648
46.69000 191.195
46.86000 203.680
47.03000 192.730
47.20000 186.398
47.37000 199.219
47.54000 200.766
47.71000 193.069
47.88000 183.067
48.05000 185.832
48.22000 192.205
48.39000 192.974
48.56000 185.910
48.73000 180.808
48.90000 187.921
49.07000 179.446
49.24000 171.916
49.41000 184.186
49.58000 175.579
49.75000 174.964
49.92000 174.755
50.09000 184.430
50.26000 183.046
50.43000 178.295
50.60000 235.818
50.77000 251.091
50.94000 239.565
51.11000 201.817
51.28000 179.669
51.45000 166.904
51.62000 176.572
51.79000 156.601
51.96000 174.645
52.13000 150.283
52.30000 164.246
52.47000 159.531
52.64000 165.308
52.81000 165.649
52.98000 163.888
53.15000 145.353
53.32000 174.354
53.49000 172.733
53.66000 160.879
53.83000 161.209
54.00000 160.615
54.17000 151.468
54.34000 154.048
54.51000 155.308
54.68000 149.321
54.85000 149.899
55.02000 154.536
55.19000 159.017
55.36000 176.833
55.53000 199.528
55.70000 273.941
55.87000 455.145
56.04000 514.801
56.21000 364.909
56.38000 229.323
56.55000 193.507
56.72000 171.942
56.89000 153.607
57.06000 150.608
57.23000 143.194
57.40000 150.111
57.57000 140.073
57.74000 136.141
57.91000 137.389
58.08000 143.295
58.25000 136.071
58.42000 142.822
58.59000 139.246
58.76000 125.977
58.93000 131.235
59.10000 146.522
59.27000 137.686
59.44000 128.861
59.61000 129.881
59.78000 140.969
59.95000 135.905
60.12000 138.144
60.29000 132.720
60.46000 135.136
60.63000 142.442
60.80000 134.740
60.97000 130.188
61.14000 134.637
61.31000 139.620
61.48000 148.556
61.65000 299.054
61.82000 218.292
61.99000 150.756
62.16000 132.189
62.33000 143.072
62.50000 141.768
62.67000 144.232
62.84000 147.455
63.01000 159.733
63.18000 134.386
63.35000 148.080
63.52000 144.855
63.69000 155.621
63.86000 149.499
64.03000 161.825
64.20000 176.664
64.37000 162.977
64.54000 177.232
64.71000 179.817
64.88000 194.907
65.05000 195.618
65.22000 230.377
65.39000 324.999
65.56000 430.354
65.73000 722.049
65.90000 1254.634
66.07000 445.360
66.24000 342.628
66.41000 483.371
66.58000 363.238
66.75000 319.600
66.92000 343.423
67.09000 372.493
67.26000 395.128
67.43000 421.057
67.60000 464.369
67.77000 484.837
67.94000 548.161
68.11000 597.360
68.28000 647.716
68.45000 792.334
68.62000 1114.943
68.79000 2163.286
68.96000 14601.587
69.13000 69746.422
69.30000 41900.297
69.47000 10356.763
69.64000 1431.697
69.81000 923.952
69.98000 756.509
70.00000 728.000