Folder: Master-Thesis/XRD/22-09-2025 Dep 2/XY Data (part 3)

File: BTO_Mapping_Theta2Theta_22-09-2025_001_20_8-901_38-997.xy
20.00000 566.872
20.17000 575.551
20.34000 542.963
20.51000 561.800
20.68000 539.378
20.85000 553.920
21.02000 555.893
21.19000 542.668
21.36000 567.297
21.53000 549.545
21.70000 571.690
21.87000 622.780
22.04000 745.515
22.21000 734.116
22.38000 642.550
22.55000 562.454
22.72000 512.584
22.89000 523.085
23.06000 538.834
23.23000 498.817
23.40000 501.491
23.57000 489.471
23.74000 505.860
23.91000 528.683
24.08000 505.645
24.25000 501.557
24.42000 495.767
24.59000 494.978
24.76000 479.089
24.93000 479.246
25.10000 474.792
25.27000 479.840
25.44000 493.583
25.61000 460.012
25.78000 481.360
25.95000 445.362
26.12000 450.184
26.29000 445.194
26.46000 442.560
26.63000 454.576
26.80000 435.852
26.97000 427.928
27.14000 457.340
27.31000 435.337
27.48000 423.451
27.65000 432.150
27.82000 447.084
27.99000 434.233
28.16000 426.128
28.33000 426.254
28.50000 432.351
28.67000 415.037
28.84000 429.652
29.01000 428.577
29.18000 407.340
29.35000 410.977
29.52000 407.629
29.69000 406.358
29.86000 420.193
30.03000 430.674
30.20000 457.325
30.37000 406.908
30.54000 433.949
30.71000 450.916
30.88000 475.913
31.05000 643.944
31.22000 1478.078
31.39000 3080.059
31.56000 2088.531
31.73000 843.478
31.90000 536.277
32.07000 447.769
32.24000 420.087
32.41000 401.929
32.58000 368.680
32.75000 366.552
32.92000 383.604
33.09000 368.007
33.26000 356.175
33.43000 344.174
33.60000 338.089
33.77000 353.835
33.94000 338.799
34.11000 339.681
34.28000 342.067
34.45000 335.263
34.62000 321.961
34.79000 330.977
34.96000 321.691
35.13000 319.724
35.30000 299.046
35.47000 325.875
35.64000 311.523
35.81000 308.995
35.98000 302.699
36.15000 290.163
36.32000 309.932
36.49000 299.815
36.66000 301.389
36.83000 294.115
37.00000 287.412
37.17000 300.725
37.34000 302.110
37.51000 293.489
37.68000 296.562
37.85000 297.598
38.02000 301.361
38.19000 308.070
38.36000 336.106
38.53000 500.286
38.70000 954.260
38.87000 808.968
39.04000 401.381
39.21000 300.831
39.38000 284.254
39.55000 264.014
39.72000 275.666
39.89000 268.103
40.06000 256.566
40.23000 253.383
40.40000 251.579
40.57000 260.557
40.74000 248.728
40.91000 243.080
41.08000 242.090
41.25000 238.421
41.42000 246.584
41.59000 234.727
41.76000 237.836
41.93000 245.503
42.10000 252.206
42.27000 256.416
42.44000 237.055
42.61000 237.037
42.78000 233.476
42.95000 221.016
43.12000 223.868
43.29000 236.510
43.46000 212.153
43.63000 239.672
43.80000 232.046
43.97000 231.515
44.14000 218.346
44.31000 234.228
44.48000 226.812
44.65000 245.659
44.82000 271.413
44.99000 338.430
45.16000 381.793
45.33000 338.547
45.50000 307.202
45.67000 261.045
45.84000 239.273
46.01000 225.983
46.18000 213.716
46.35000 203.291
46.52000 213.736
46.69000 197.975
46.86000 198.276
47.03000 205.644
47.20000 182.484
47.37000 190.082
47.54000 188.397
47.71000 190.984
47.88000 188.865
48.05000 188.992
48.22000 181.302
48.39000 188.230
48.56000 197.553
48.73000 181.532
48.90000 175.315
49.07000 169.276
49.24000 176.165
49.41000 176.159
49.58000 168.990
49.75000 177.472
49.92000 175.035
50.09000 194.281
50.26000 181.765
50.43000 193.389
50.60000 220.404
50.77000 267.941
50.94000 229.841
51.11000 203.819
51.28000 180.543
51.45000 174.006
51.62000 168.509
51.79000 162.022
51.96000 159.844
52.13000 177.338
52.30000 176.484
52.47000 161.750
52.64000 153.432
52.81000 167.356
52.98000 154.843
53.15000 155.477
53.32000 167.789
53.49000 161.372
53.66000 154.477
53.83000 159.912
54.00000 156.637
54.17000 155.101
54.34000 163.877
54.51000 160.877
54.68000 166.083
54.85000 154.982
55.02000 158.154
55.19000 162.445
55.36000 169.290
55.53000 188.273
55.70000 248.478
55.87000 421.588
56.04000 533.677
56.21000 388.767
56.38000 250.277
56.55000 197.760
56.72000 172.320
56.89000 156.682
57.06000 145.319
57.23000 137.552
57.40000 141.992
57.57000 149.880
57.74000 157.160
57.91000 143.814
58.08000 140.781
58.25000 136.125
58.42000 137.072
58.59000 133.779
58.76000 137.006
58.93000 137.856
59.10000 124.919
59.27000 134.906
59.44000 131.422
59.61000 125.337
59.78000 138.917
59.95000 132.133
60.12000 143.802
60.29000 131.687
60.46000 137.243
60.63000 140.855
60.80000 135.607
60.97000 130.171
61.14000 122.214
61.31000 135.026
61.48000 153.074
61.65000 274.737
61.82000 196.917
61.99000 153.616
62.16000 144.536
62.33000 143.351
62.50000 135.788
62.67000 140.168
62.84000 148.872
63.01000 151.697
63.18000 143.842
63.35000 153.424
63.52000 154.331
63.69000 159.359
63.86000 153.810
64.03000 160.860
64.20000 164.036
64.37000 171.703
64.54000 155.316
64.71000 169.828
64.88000 196.790
65.05000 185.594
65.22000 231.075
65.39000 274.821
65.56000 400.024
65.73000 735.416
65.90000 1208.843
66.07000 424.615
66.24000 349.302
66.41000 460.223
66.58000 368.984
66.75000 334.314
66.92000 355.902
67.09000 376.285
67.26000 394.218
67.43000 416.941
67.60000 453.124
67.77000 508.816
67.94000 538.845
68.11000 575.533
68.28000 642.525
68.45000 777.039
68.62000 1131.979
68.79000 2201.512
68.96000 15496.696
69.13000 66599.836
69.30000 38988.309
69.47000 9055.233
69.64000 1361.508
69.81000 884.612
69.98000 721.286
70.00000 703.038

File: BTO_Mapping_Theta2Theta_22-09-2025_001_21_11-126_48-746.xy
20.00000 2342.627
20.17000 2375.169
20.34000 2362.312
20.51000 2340.346
20.68000 2350.267
20.85000 2366.312
21.02000 2372.242
21.19000 2361.293
21.36000 2408.526
21.53000 2394.614
21.70000 2413.647
21.87000 2367.298
22.04000 2356.007
22.21000 2370.326
22.38000 2407.308
22.55000 2405.711
22.72000 2398.020
22.89000 2407.781
23.06000 2396.681
23.23000 2413.339
23.40000 2444.487
23.57000 2428.811
23.74000 2423.477
23.91000 2441.302
24.08000 2432.869
24.25000 2468.460
24.42000 2400.342
24.59000 2461.281
24.76000 2442.812
24.93000 2491.799
25.10000 2448.646
25.27000 2462.127
25.44000 2480.986
25.61000 2439.768
25.78000 2480.884
25.95000 2506.229
26.12000 2485.037
26.29000 2495.220
26.46000 2447.098
26.63000 2514.628
26.80000 2483.943
26.97000 2549.000
27.14000 2428.013
27.31000 2468.799
27.48000 2497.393
27.65000 2479.747
27.82000 2508.632
27.99000 2481.853
28.16000 2477.945
28.33000 2525.971
28.50000 2506.513
28.67000 2490.279
28.84000 2471.719
29.01000 2494.008
29.18000 2538.453
29.35000 2519.681
29.52000 2510.920
29.69000 2510.894
29.86000 2469.044
30.03000 2491.007
30.20000 2482.155
30.37000 2513.228
30.54000 2513.839
30.71000 2530.285
30.88000 2472.838
31.05000 2517.517
31.22000 2508.466
31.39000 2477.153
31.56000 2525.545
31.73000 2527.522
31.90000 2514.869
32.07000 2496.123
32.24000 2529.068
32.41000 2520.518
32.58000 2458.221
32.75000 2472.802
32.92000 2521.840
33.09000 2498.641
33.26000 2524.192
33.43000 2511.493
33.60000 2481.975
33.77000 2495.145
33.94000 2447.920
34.11000 2506.592
34.28000 2474.115
34.45000 2485.559
34.62000 2467.563
34.79000 2500.831
34.96000 2482.701
35.13000 2470.646
35.30000 2500.871
35.47000 2522.555
35.64000 2456.786
35.81000 2462.778
35.98000 2489.753
36.15000 2470.551
36.32000 2509.575
36.49000 2439.303
36.66000 2485.178
36.83000 2474.952
37.00000 2434.315
37.17000 2498.264
37.34000 2457.809
37.51000 2442.067
37.68000 2488.073
37.85000 2468.955
38.02000 2499.862
38.19000 2459.679
38.36000 2461.428
38.53000 2427.309
38.70000 2452.233
38.87000 2465.002
39.04000 2432.501
39.21000 2482.943
39.38000 2431.650
39.55000 2421.470
39.72000 2434.730
39.89000 2454.649
40.06000 2462.641
40.23000 2448.205
40.40000 2466.883
40.57000 2433.229
40.74000 2380.874
40.91000 2425.565
41.08000 2472.233
41.25000 2454.348
41.42000 2476.386
41.59000 2450.596
41.76000 2437.378
41.93000 2455.877
42.10000 2436.249
42.27000 2484.938
42.44000 2462.054
42.61000 2464.246
42.78000 2462.991
42.95000 2473.732
43.12000 2475.077
43.29000 2479.920
43.46000 2588.441
43.63000 2694.651
43.80000 3024.256
43.97000 4219.649
44.14000 7449.666
44.31000 8432.322
44.48000 5084.286
44.65000 3158.714
44.82000 2688.898
44.99000 2547.406
45.16000 2485.815
45.33000 2520.665
45.50000 2423.739
45.67000 2397.302
45.84000 2447.743
46.01000 2416.061
46.18000 2376.675
46.35000 2393.505
46.52000 2373.116
46.69000 2429.514
46.86000 2367.819
47.03000 2388.843
47.20000 2381.829
47.37000 2364.450
47.54000 2357.744
47.71000 2353.656
47.88000 2407.798
48.05000 2376.120
48.22000 2380.093
48.39000 2393.302
48.56000 2381.903
48.73000 2397.818
48.90000 2351.341
49.07000 2389.025
49.24000 2354.022
49.41000 2373.582
49.58000 2407.161
49.75000 2345.336
49.92000 2386.472
50.09000 2333.196
50.26000 2350.231
50.43000 2382.917
50.60000 2337.510
50.77000 2353.874
50.94000 2343.643
51.11000 2367.742
51.28000 2336.448
51.45000 2344.224
51.62000 2348.912
51.79000 2348.496
51.96000 2300.128
52.13000 2348.350
52.30000 2337.147
52.47000 2331.775
52.64000 2319.422
52.81000 2355.568
52.98000 2369.965
53.15000 2346.509
53.32000 2335.274
53.49000 2337.307
53.66000 2336.258
53.83000 2339.335
54.00000 2367.620
54.17000 2393.072
54.34000 2329.500
54.51000 2358.667
54.68000 2295.907
54.85000 2325.065
55.02000 2311.046
55.19000 2356.732
55.36000 2309.265
55.53000 2362.377
55.70000 2302.836
55.87000 2366.823
56.04000 2351.139
56.21000 2322.004
56.38000 2334.983
56.55000 2302.345
56.72000 2297.627
56.89000 2336.413
57.06000 2332.422
57.23000 2370.341
57.40000 2304.929
57.57000 2353.529
57.74000 2308.675
57.91000 2315.763
58.08000 2356.657
58.25000 2339.070
58.42000 2320.036
58.59000 2306.565
58.76000 2341.956
58.93000 2326.903
59.10000 2341.667
59.27000 2297.613
59.44000 2310.158
59.61000 2316.688
59.78000 2351.070
59.95000 2294.836
60.12000 2279.688
60.29000 2333.838
60.46000 2287.268
60.63000 2333.911
60.80000 2317.264
60.97000 2282.737
61.14000 2289.656
61.31000 2308.830
61.48000 2309.463
61.65000 2324.362
61.82000 2293.990
61.99000 2295.817
62.16000 2315.117
62.33000 2331.282
62.50000 2310.167
62.67000 2302.578
62.84000 2329.128
63.01000 2342.056
63.18000 2293.277
63.35000 2322.385
63.52000 2324.297
63.69000 2337.724
63.86000 2338.471
64.03000 2396.255
64.20000 2466.687
64.37000 2656.931
64.54000 2722.821
64.71000 2590.205
64.88000 2490.402
65.05000 2385.188
65.22000 2343.620
65.39000 2348.466
65.56000 2292.813
65.73000 2391.864
65.90000 2350.814
66.07000 2343.939
66.24000 2302.179
66.41000 2340.635
66.58000 2323.936
66.75000 2327.704
66.92000 2324.291
67.09000 2304.431
67.26000 2325.622
67.43000 2354.688
67.60000 2303.953
67.77000 2317.464
67.94000 2345.330
68.11000 2316.091
68.28000 2313.769
68.45000 2373.905
68.62000 2352.043
68.79000 2411.278
68.96000 5317.715
69.13000 7141.355
69.30000 4569.305
69.47000 2465.426
69.64000 2360.411
69.81000 2322.197
69.98000 2307.548
70.00000 2317.234

File: BTO_Mapping_Theta2Theta_22-09-2025_001_23_-4-450_19-499.xy
20.00000 564.460
20.17000 569.343
20.34000 570.731
20.51000 574.264
20.68000 566.681
20.85000 552.692
21.02000 556.566
21.19000 570.936
21.36000 546.776
21.53000 539.263
21.70000 598.823
21.87000 681.923
22.04000 855.052
22.21000 733.620
22.38000 625.092
22.55000 569.566
22.72000 544.058
22.89000 515.570
23.06000 517.432
23.23000 518.600
23.40000 501.735
23.57000 506.065
23.74000 497.142
23.91000 495.185
24.08000 501.730
24.25000 493.995
24.42000 493.514
24.59000 478.130
24.76000 479.745
24.93000 480.995
25.10000 459.690
25.27000 480.038
25.44000 470.040
25.61000 485.554
25.78000 471.518
25.95000 456.642
26.12000 454.914
26.29000 457.415
26.46000 456.810
26.63000 444.201
26.80000 442.479
26.97000 466.901
27.14000 459.275
27.31000 434.493
27.48000 431.035
27.65000 441.881
27.82000 417.883
27.99000 442.713
28.16000 420.220
28.33000 425.966
28.50000 434.801
28.67000 430.299
28.84000 435.244
29.01000 427.546
29.18000 413.922
29.35000 423.482
29.52000 428.368
29.69000 419.382
29.86000 454.204
30.03000 458.516
30.20000 457.058
30.37000 446.212
30.54000 445.887
30.71000 469.453
30.88000 502.066
31.05000 748.247
31.22000 1861.619
31.39000 3469.473
31.56000 2061.985
31.73000 838.611
31.90000 546.040
32.07000 445.333
32.24000 434.317
32.41000 401.134
32.58000 381.086
32.75000 396.835
32.92000 421.354
33.09000 375.295
33.26000 348.041
33.43000 366.319
33.60000 345.782
33.77000 340.451
33.94000 334.935
34.11000 337.897
34.28000 327.253
34.45000 334.654
34.62000 328.270
34.79000 323.636
34.96000 310.316
35.13000 320.087
35.30000 318.407
35.47000 312.155
35.64000 308.296
35.81000 314.317
35.98000 294.429
36.15000 302.004
36.32000 294.604
36.49000 308.580
36.66000 299.349
36.83000 297.958
37.00000 298.157
37.17000 310.008
37.34000 300.850
37.51000 286.070
37.68000 296.009
37.85000 286.559
38.02000 304.284
38.19000 324.862
38.36000 363.245
38.53000 596.593
38.70000 959.841
38.87000 688.893
39.04000 385.318
39.21000 321.911
39.38000 303.438
39.55000 290.608
39.72000 275.855
39.89000 268.090
40.06000 274.305
40.23000 261.712
40.40000 269.678
40.57000 247.447
40.74000 257.246
40.91000 263.458
41.08000 247.979
41.25000 242.085
41.42000 257.942
41.59000 240.652
41.76000 249.868
41.93000 241.439
42.10000 251.728
42.27000 239.647
42.44000 235.410
42.61000 237.012
42.78000 232.138
42.95000 242.008
43.12000 237.275
43.29000 234.858
43.46000 245.570
43.63000 227.272
43.80000 219.378
43.97000 236.434
44.14000 246.920
44.31000 235.483
44.48000 239.683
44.65000 254.229
44.82000 335.002
44.99000 417.914
45.16000 438.400
45.33000 352.093
45.50000 296.713
45.67000 261.215
45.84000 238.510
46.01000 227.285
46.18000 221.117
46.35000 195.783
46.52000 193.702
46.69000 219.153
46.86000 196.211
47.03000 187.392
47.20000 204.355
47.37000 199.375
47.54000 195.762
47.71000 191.795
47.88000 177.085
48.05000 177.619
48.22000 183.227
48.39000 178.977
48.56000 191.458
48.73000 181.121
48.90000 180.218
49.07000 181.286
49.24000 175.070
49.41000 184.574
49.58000 183.451
49.75000 187.444
49.92000 182.383
50.09000 180.139
50.26000 179.924
50.43000 193.151
50.60000 227.517
50.77000 273.860
50.94000 225.491
51.11000 198.904
51.28000 198.883
51.45000 167.708
51.62000 167.377
51.79000 170.970
51.96000 161.856
52.13000 174.141
52.30000 168.460
52.47000 153.505
52.64000 161.232
52.81000 162.724
52.98000 152.869
53.15000 154.721
53.32000 155.085
53.49000 156.930
53.66000 162.076
53.83000 165.234
54.00000 166.834
54.17000 163.887
54.34000 150.391
54.51000 161.254
54.68000 157.897
54.85000 163.480
55.02000 159.574
55.19000 165.319
55.36000 178.251
55.53000 215.804
55.70000 314.086
55.87000 527.148
56.04000 552.645
56.21000 378.335
56.38000 248.888
56.55000 195.504
56.72000 172.355
56.89000 152.266
57.06000 142.507
57.23000 142.203
57.40000 150.098
57.57000 146.609
57.74000 157.823
57.91000 140.603
58.08000 148.774
58.25000 139.663
58.42000 121.632
58.59000 148.977
58.76000 139.822
58.93000 125.983
59.10000 135.319
59.27000 135.867
59.44000 129.413
59.61000 143.460
59.78000 145.184
59.95000 135.542
60.12000 136.816
60.29000 128.939
60.46000 133.190
60.63000 140.648
60.80000 135.617
60.97000 128.526
61.14000 140.626
61.31000 145.994
61.48000 156.719
61.65000 335.477
61.82000 230.500
61.99000 152.388
62.16000 140.197
62.33000 140.654
62.50000 136.507
62.67000 142.053
62.84000 148.904
63.01000 146.782
63.18000 151.030
63.35000 144.748
63.52000 147.448
63.69000 150.376
63.86000 160.238
64.03000 146.783
64.20000 161.538
64.37000 164.701
64.54000 175.381
64.71000 174.168
64.88000 191.259
65.05000 200.755
65.22000 261.282
65.39000 315.894
65.56000 436.611
65.73000 899.091
65.90000 1436.149
66.07000 455.377
66.24000 368.717
66.41000 533.286
66.58000 400.031
66.75000 356.229
66.92000 378.477
67.09000 399.150
67.26000 415.986
67.43000 443.527
67.60000 485.948
67.77000 530.306
67.94000 601.146
68.11000 642.471
68.28000 737.358
68.45000 866.022
68.62000 1321.199
68.79000 2687.277
68.96000 21602.578
69.13000 84682.930
69.30000 49287.738
69.47000 11203.938
69.64000 1573.079
69.81000 983.961
69.98000 811.286
70.00000 773.179

File: BTO_Mapping_Theta2Theta_22-09-2025_001_24_-6-676_29-248.xy
20.00000 547.340
20.17000 559.430
20.34000 559.836
20.51000 564.045
20.68000 552.695
20.85000 545.888
21.02000 563.797
21.19000 571.084
21.36000 580.898
21.53000 554.844
21.70000 602.860
21.87000 676.024
22.04000 843.322
22.21000 753.703
22.38000 624.486
22.55000 574.569
22.72000 536.034
22.89000 532.712
23.06000 541.313
23.23000 507.591
23.40000 502.858
23.57000 499.953
23.74000 521.859
23.91000 482.182
24.08000 500.787
24.25000 490.474
24.42000 481.157
24.59000 481.074
24.76000 482.015
24.93000 479.814
25.10000 463.850
25.27000 489.043
25.44000 500.084
25.61000 467.477
25.78000 463.027
25.95000 434.645
26.12000 468.929
26.29000 460.808
26.46000 446.261
26.63000 444.244
26.80000 463.330
26.97000 441.932
27.14000 443.521
27.31000 443.151
27.48000 432.199
27.65000 436.199
27.82000 435.048
27.99000 441.622
28.16000 444.463
28.33000 428.822
28.50000 444.936
28.67000 411.879
28.84000 427.372
29.01000 407.823
29.18000 420.509
29.35000 421.939
29.52000 429.730
29.69000 404.993
29.86000 426.612
30.03000 453.596
30.20000 436.766
30.37000 433.354
30.54000 432.171
30.71000 459.071
30.88000 502.437
31.05000 716.673
31.22000 1739.723
31.39000 3391.184
31.56000 2109.932
31.73000 866.034
31.90000 540.348
32.07000 445.259
32.24000 395.141
32.41000 394.037
32.58000 407.538
32.75000 408.764
32.92000 418.832
33.09000 377.783
33.26000 360.062
33.43000 341.098
33.60000 357.715
33.77000 341.434
33.94000 345.867
34.11000 338.738
34.28000 352.950
34.45000 341.287
34.62000 332.369
34.79000 333.557
34.96000 323.552
35.13000 321.708
35.30000 308.642
35.47000 316.446
35.64000 314.105
35.81000 304.578
35.98000 304.548
36.15000 306.072
36.32000 303.227
36.49000 289.092
36.66000 320.524
36.83000 312.090
37.00000 306.104
37.17000 303.437
37.34000 295.930
37.51000 297.866
37.68000 308.478
37.85000 304.376
38.02000 320.539
38.19000 324.761
38.36000 355.873
38.53000 590.420
38.70000 932.670
38.87000 685.886
39.04000 379.044
39.21000 310.772
39.38000 288.701
39.55000 296.393
39.72000 265.387
39.89000 270.731
40.06000 272.926
40.23000 255.546
40.40000 265.671
40.57000 244.066
40.74000 254.757
40.91000 256.173
41.08000 257.464
41.25000 262.693
41.42000 250.316
41.59000 242.095
41.76000 242.064
41.93000 229.376
42.10000 221.365
42.27000 246.421
42.44000 228.132
42.61000 228.743
42.78000 228.374
42.95000 228.201
43.12000 243.941
43.29000 230.965
43.46000 226.904
43.63000 248.881
43.80000 212.992
43.97000 220.744
44.14000 234.010
44.31000 231.048
44.48000 244.457
44.65000 255.982
44.82000 330.136
44.99000 444.893
45.16000 440.620
45.33000 345.810
45.50000 285.001
45.67000 264.883
45.84000 230.871
46.01000 230.992
46.18000 210.931
46.35000 208.301
46.52000 202.538
46.69000 204.669
46.86000 200.614
47.03000 197.703
47.20000 193.716
47.37000 187.748
47.54000 191.123
47.71000 178.815
47.88000 182.873
48.05000 182.835
48.22000 193.044
48.39000 195.491
48.56000 174.519
48.73000 195.612
48.90000 171.759
49.07000 178.363
49.24000 174.574
49.41000 180.518
49.58000 178.764
49.75000 172.741
49.92000 176.695
50.09000 175.890
50.26000 180.762
50.43000 200.698
50.60000 238.092
50.77000 272.265
50.94000 231.022
51.11000 197.020
51.28000 189.579
51.45000 175.712
51.62000 163.249
51.79000 169.043
51.96000 156.812
52.13000 152.187
52.30000 155.889
52.47000 170.827
52.64000 159.536
52.81000 156.795
52.98000 160.453
53.15000 166.659
53.32000 153.121
53.49000 166.612
53.66000 157.333
53.83000 165.466
54.00000 160.794
54.17000 151.791
54.34000 161.618
54.51000 158.311
54.68000 147.877
54.85000 154.170
55.02000 169.457
55.19000 178.257
55.36000 173.174
55.53000 204.966
55.70000 313.871
55.87000 527.991
56.04000 558.540
56.21000 378.549
56.38000 241.438
56.55000 202.879
56.72000 178.936
56.89000 163.926
57.06000 147.464
57.23000 148.449
57.40000 150.681
57.57000 148.380
57.74000 145.991
57.91000 142.363
58.08000 141.736
58.25000 142.967
58.42000 142.414
58.59000 141.345
58.76000 137.059
58.93000 130.201
59.10000 133.140
59.27000 141.342
59.44000 141.331
59.61000 133.530
59.78000 136.855
59.95000 133.677
60.12000 122.484
60.29000 139.887
60.46000 132.902
60.63000 134.920
60.80000 141.343
60.97000 138.889
61.14000 134.326
61.31000 141.278
61.48000 154.772
61.65000 333.433
61.82000 214.345
61.99000 145.082
62.16000 136.637
62.33000 155.882
62.50000 144.690
62.67000 142.753
62.84000 148.001
63.01000 136.947
63.18000 136.093
63.35000 147.860
63.52000 146.953
63.69000 164.216
63.86000 163.577
64.03000 161.331
64.20000 154.954
64.37000 163.812
64.54000 166.247
64.71000 193.049
64.88000 186.734
65.05000 223.801
65.22000 238.242
65.39000 316.532
65.56000 442.165
65.73000 912.690
65.90000 1473.024
66.07000 473.554
66.24000 369.079
66.41000 519.925
66.58000 401.804
66.75000 348.142
66.92000 381.268
67.09000 394.516
67.26000 427.964
67.43000 458.823
67.60000 483.122
67.77000 542.742
67.94000 599.386
68.11000 641.508
68.28000 735.927
68.45000 862.566
68.62000 1362.607
68.79000 2747.436
68.96000 22378.863
69.13000 86069.500
69.30000 49980.703
69.47000 11390.289
69.64000 1592.736
69.81000 1023.112
69.98000 825.819
70.00000 810.892

File: BTO_Mapping_Theta2Theta_22-09-2025_001_25_-8-901_38-997.xy
20.00000 560.904
20.17000 575.001
20.34000 569.733
20.51000 576.208
20.68000 554.629
20.85000 561.883
21.02000 555.239
21.19000 565.606
21.36000 541.713
21.53000 560.820
21.70000 585.136
21.87000 679.040
22.04000 821.760
22.21000 747.229
22.38000 615.983
22.55000 540.756
22.72000 523.338
22.89000 541.209
23.06000 526.693
23.23000 518.194
23.40000 506.827
23.57000 483.030
23.74000 499.953
23.91000 511.505
24.08000 476.773
24.25000 502.350
24.42000 497.449
24.59000 494.229
24.76000 470.341
24.93000 497.146
25.10000 454.066
25.27000 472.248
25.44000 452.752
25.61000 472.868
25.78000 462.459
25.95000 474.225
26.12000 476.343
26.29000 450.521
26.46000 458.543
26.63000 457.525
26.80000 443.643
26.97000 454.213
27.14000 433.506
27.31000 437.874
27.48000 434.797
27.65000 429.227
27.82000 436.019
27.99000 427.342
28.16000 423.362
28.33000 432.026
28.50000 411.775
28.67000 428.242
28.84000 417.493
29.01000 408.605
29.18000 400.843
29.35000 400.108
29.52000 420.287
29.69000 429.563
29.86000 409.013
30.03000 450.949
30.20000 464.402
30.37000 433.022
30.54000 449.758
30.71000 456.263
30.88000 483.987
31.05000 643.710
31.22000 1605.007
31.39000 3357.499
31.56000 2282.796
31.73000 915.944
31.90000 542.088
32.07000 444.648
32.24000 393.477
32.41000 428.387
32.58000 402.588
32.75000 387.547
32.92000 402.058
33.09000 383.245
33.26000 357.829
33.43000 355.924
33.60000 341.595
33.77000 339.269
33.94000 340.769
34.11000 338.440
34.28000 326.715
34.45000 326.977
34.62000 314.340
34.79000 312.627
34.96000 335.856
35.13000 322.075
35.30000 313.175
35.47000 320.976
35.64000 319.827
35.81000 299.987
35.98000 300.168
36.15000 307.802
36.32000 304.000
36.49000 301.064
36.66000 304.030
36.83000 306.418
37.00000 308.182
37.17000 310.003
37.34000 300.068
37.51000 298.503
37.68000 286.584
37.85000 297.284
38.02000 300.222
38.19000 300.870
38.36000 339.008
38.53000 525.142
38.70000 897.874
38.87000 724.418
39.04000 393.014
39.21000 301.182
39.38000 300.666
39.55000 272.354
39.72000 267.276
39.89000 262.174
40.06000 268.266
40.23000 265.485
40.40000 256.665
40.57000 244.340
40.74000 251.034
40.91000 266.791
41.08000 244.020
41.25000 251.478
41.42000 247.739
41.59000 250.422
41.76000 250.519
41.93000 250.285
42.10000 249.007
42.27000 230.535
42.44000 234.812
42.61000 237.934
42.78000 236.576
42.95000 237.223
43.12000 227.171
43.29000 236.779
43.46000 235.466
43.63000 224.542
43.80000 222.318
43.97000 215.429
44.14000 226.497
44.31000 233.986
44.48000 240.761
44.65000 257.120
44.82000 299.979
44.99000 404.748
45.16000 437.182
45.33000 349.926
45.50000 298.601
45.67000 259.707
45.84000 232.087
46.01000 217.677
46.18000 219.994
46.35000 204.070
46.52000 199.899
46.69000 208.862
46.86000 189.149
47.03000 193.951
47.20000 196.502
47.37000 180.938
47.54000 193.852
47.71000 196.855
47.88000 186.011
48.05000 186.871
48.22000 190.952
48.39000 195.483
48.56000 180.900
48.73000 178.638
48.90000 177.501
49.07000 173.220
49.24000 196.906
49.41000 184.991
49.58000 185.227
49.75000 180.094
49.92000 186.912
50.09000 193.571
50.26000 179.235
50.43000 205.806
50.60000 248.778
50.77000 272.129
50.94000 245.677
51.11000 202.324
51.28000 183.121
51.45000 184.917
51.62000 164.941
51.79000 174.961
51.96000 172.789
52.13000 170.569
52.30000 150.352
52.47000 162.433
52.64000 161.943
52.81000 148.741
52.98000 171.536
53.15000 161.936
53.32000 170.542
53.49000 153.452
53.66000 165.265
53.83000 160.427
54.00000 159.358
54.17000 148.944
54.34000 156.425
54.51000 157.339
54.68000 151.561
54.85000 155.568
55.02000 170.819
55.19000 166.832
55.36000 168.827
55.53000 212.563
55.70000 293.209
55.87000 504.589
56.04000 571.901
56.21000 405.723
56.38000 255.897
56.55000 189.802
56.72000 171.224
56.89000 156.101
57.06000 148.444
57.23000 148.758
57.40000 146.655
57.57000 138.992
57.74000 136.655
57.91000 148.759
58.08000 146.913
58.25000 137.269
58.42000 147.007
58.59000 142.321
58.76000 145.572
58.93000 124.763
59.10000 129.932
59.27000 136.553
59.44000 131.736
59.61000 146.643
59.78000 141.282
59.95000 129.577
60.12000 139.242
60.29000 136.310
60.46000 144.352
60.63000 138.624
60.80000 139.221
60.97000 135.968
61.14000 144.067
61.31000 138.762
61.48000 156.774
61.65000 352.988
61.82000 228.278
61.99000 147.127
62.16000 144.950
62.33000 144.163
62.50000 140.021
62.67000 148.070
62.84000 141.450
63.01000 163.853
63.18000 155.608
63.35000 143.204
63.52000 149.449
63.69000 159.160
63.86000 160.068
64.03000 156.806
64.20000 162.829
64.37000 172.653
64.54000 166.940
64.71000 174.156
64.88000 191.959
65.05000 200.979
65.22000 234.043
65.39000 311.433
65.56000 426.374
65.73000 917.051
65.90000 1465.203
66.07000 492.999
66.24000 388.380
66.41000 558.135
66.58000 401.653
66.75000 359.863
66.92000 370.902
67.09000 369.273
67.26000 409.074
67.43000 437.394
67.60000 501.194
67.77000 524.729
67.94000 588.356
68.11000 635.243
68.28000 740.558
68.45000 877.840
68.62000 1306.001
68.79000 2704.505
68.96000 21333.328
69.13000 86216.719
69.30000 51037.215
69.47000 12015.205
69.64000 1636.865
69.81000 1013.326
69.98000 787.323
70.00000 771.846