Folder: Master-Thesis/XRD/22-09-2025 Dep 2/XY Data

File: BTO_Mapping_Theta2Theta_22-09-2025_001_01_0-000_0-000.xy
20.00000 564.440
20.17000 577.501
20.34000 551.322
20.51000 547.965
20.68000 547.236
20.85000 543.516
21.02000 559.439
21.19000 565.232
21.36000 562.382
21.53000 558.987
21.70000 603.944
21.87000 715.849
22.04000 841.284
22.21000 724.257
22.38000 627.094
22.55000 554.604
22.72000 533.737
22.89000 520.247
23.06000 523.348
23.23000 506.567
23.40000 516.221
23.57000 510.242
23.74000 503.038
23.91000 490.159
24.08000 488.713
24.25000 493.202
24.42000 499.178
24.59000 485.873
24.76000 482.764
24.93000 473.153
25.10000 485.936
25.27000 471.176
25.44000 487.823
25.61000 475.649
25.78000 469.642
25.95000 464.454
26.12000 461.059
26.29000 468.208
26.46000 452.799
26.63000 455.801
26.80000 468.777
26.97000 430.815
27.14000 440.576
27.31000 446.486
27.48000 441.827
27.65000 436.211
27.82000 431.511
27.99000 425.250
28.16000 453.521
28.33000 428.341
28.50000 432.311
28.67000 436.037
28.84000 427.812
29.01000 411.691
29.18000 408.498
29.35000 408.142
29.52000 426.176
29.69000 410.001
29.86000 410.370
30.03000 450.002
30.20000 446.964
30.37000 438.827
30.54000 435.645
30.71000 450.595
30.88000 535.008
31.05000 773.554
31.22000 1940.155
31.39000 3467.565
31.56000 2052.095
31.73000 833.131
31.90000 519.844
32.07000 436.897
32.24000 423.783
32.41000 397.238
32.58000 403.448
32.75000 392.180
32.92000 425.458
33.09000 381.515
33.26000 350.862
33.43000 349.218
33.60000 348.534
33.77000 345.142
33.94000 354.679
34.11000 336.858
34.28000 329.986
34.45000 323.640
34.62000 344.765
34.79000 333.703
34.96000 331.804
35.13000 330.004
35.30000 306.430
35.47000 312.790
35.64000 300.555
35.81000 313.497
35.98000 304.564
36.15000 306.225
36.32000 296.539
36.49000 299.770
36.66000 300.351
36.83000 308.491
37.00000 297.247
37.17000 315.683
37.34000 303.089
37.51000 295.141
37.68000 297.106
37.85000 308.308
38.02000 296.191
38.19000 324.795
38.36000 370.106
38.53000 579.626
38.70000 978.553
38.87000 686.763
39.04000 372.877
39.21000 319.651
39.38000 273.866
39.55000 282.529
39.72000 268.409
39.89000 274.457
40.06000 277.391
40.23000 271.943
40.40000 256.042
40.57000 271.809
40.74000 261.651
40.91000 248.308
41.08000 252.357
41.25000 234.205
41.42000 245.904
41.59000 246.111
41.76000 246.076
41.93000 232.820
42.10000 221.651
42.27000 235.360
42.44000 233.917
42.61000 232.779
42.78000 241.115
42.95000 232.001
43.12000 229.267
43.29000 239.415
43.46000 217.899
43.63000 226.085
43.80000 222.704
43.97000 233.856
44.14000 228.192
44.31000 229.757
44.48000 233.560
44.65000 253.374
44.82000 331.415
44.99000 440.724
45.16000 446.617
45.33000 344.889
45.50000 290.471
45.67000 263.639
45.84000 232.608
46.01000 223.983
46.18000 215.615
46.35000 198.072
46.52000 210.729
46.69000 197.033
46.86000 192.152
47.03000 194.569
47.20000 189.637
47.37000 192.069
47.54000 194.564
47.71000 192.545
47.88000 183.672
48.05000 182.321
48.22000 185.674
48.39000 191.585
48.56000 192.499
48.73000 185.703
48.90000 169.785
49.07000 191.483
49.24000 177.086
49.41000 177.761
49.58000 166.416
49.75000 164.531
49.92000 184.425
50.09000 172.013
50.26000 177.792
50.43000 205.756
50.60000 236.048
50.77000 256.729
50.94000 228.528
51.11000 202.865
51.28000 181.058
51.45000 184.761
51.62000 170.789
51.79000 166.360
51.96000 156.973
52.13000 156.075
52.30000 158.561
52.47000 161.523
52.64000 159.802
52.81000 152.698
52.98000 151.045
53.15000 152.509
53.32000 171.011
53.49000 157.006
53.66000 158.578
53.83000 156.177
54.00000 158.275
54.17000 152.184
54.34000 160.803
54.51000 166.516
54.68000 153.546
54.85000 164.011
55.02000 169.057
55.19000 160.707
55.36000 186.254
55.53000 216.630
55.70000 305.663
55.87000 494.058
56.04000 546.367
56.21000 351.486
56.38000 243.246
56.55000 183.727
56.72000 168.954
56.89000 158.848
57.06000 152.327
57.23000 145.185
57.40000 146.174
57.57000 143.911
57.74000 143.211
57.91000 145.954
58.08000 141.174
58.25000 143.389
58.42000 140.743
58.59000 134.879
58.76000 140.450
58.93000 138.205
59.10000 137.324
59.27000 134.187
59.44000 134.295
59.61000 137.729
59.78000 145.607
59.95000 137.972
60.12000 145.743
60.29000 134.402
60.46000 131.253
60.63000 126.737
60.80000 123.351
60.97000 131.238
61.14000 133.337
61.31000 136.580
61.48000 158.112
61.65000 323.759
61.82000 215.333
61.99000 140.227
62.16000 138.432
62.33000 128.664
62.50000 151.676
62.67000 136.775
62.84000 144.124
63.01000 147.351
63.18000 155.553
63.35000 153.415
63.52000 141.640
63.69000 151.716
63.86000 159.392
64.03000 152.179
64.20000 163.290
64.37000 174.354
64.54000 176.762
64.71000 175.969
64.88000 182.641
65.05000 208.412
65.22000 241.258
65.39000 340.917
65.56000 445.103
65.73000 887.879
65.90000 1426.051
66.07000 439.133
66.24000 367.213
66.41000 548.420
66.58000 394.104
66.75000 350.421
66.92000 360.435
67.09000 376.593
67.26000 433.395
67.43000 469.929
67.60000 476.301
67.77000 536.876
67.94000 568.815
68.11000 639.333
68.28000 707.877
68.45000 842.907
68.62000 1293.144
68.79000 2620.948
68.96000 20646.953
69.13000 80473.648
69.30000 46467.070
69.47000 10411.233
69.64000 1501.013
69.81000 951.563
69.98000 773.796
70.00000 767.293

File: BTO_Mapping_Theta2Theta_22-09-2025_001_05_40-000_0-000.xy
20.00000 546.789
20.17000 572.480
20.34000 562.663
20.51000 566.953
20.68000 540.350
20.85000 554.431
21.02000 573.380
21.19000 543.991
21.36000 546.304
21.53000 545.672
21.70000 537.964
21.87000 590.686
22.04000 644.856
22.21000 650.897
22.38000 603.840
22.55000 528.047
22.72000 539.056
22.89000 530.885
23.06000 511.986
23.23000 494.026
23.40000 505.633
23.57000 508.547
23.74000 519.141
23.91000 524.082
24.08000 537.614
24.25000 523.433
24.42000 476.530
24.59000 490.941
24.76000 487.407
24.93000 490.909
25.10000 473.505
25.27000 455.728
25.44000 460.339
25.61000 467.780
25.78000 446.472
25.95000 453.981
26.12000 451.761
26.29000 453.729
26.46000 448.547
26.63000 430.883
26.80000 460.240
26.97000 435.301
27.14000 431.966
27.31000 439.360
27.48000 433.438
27.65000 442.506
27.82000 428.244
27.99000 429.370
28.16000 416.215
28.33000 413.836
28.50000 427.918
28.67000 440.452
28.84000 408.129
29.01000 418.669
29.18000 408.149
29.35000 406.036
29.52000 398.918
29.69000 421.744
29.86000 412.394
30.03000 403.159
30.20000 416.486
30.37000 430.759
30.54000 425.906
30.71000 419.193
30.88000 452.409
31.05000 552.961
31.22000 945.062
31.39000 1945.458
31.56000 1493.829
31.73000 693.370
31.90000 482.836
32.07000 422.591
32.24000 397.989
32.41000 377.446
32.58000 394.954
32.75000 366.870
32.92000 392.336
33.09000 346.037
33.26000 341.695
33.43000 354.427
33.60000 328.967
33.77000 328.587
33.94000 320.989
34.11000 329.373
34.28000 336.823
34.45000 338.538
34.62000 331.275
34.79000 318.462
34.96000 313.076
35.13000 303.905
35.30000 324.987
35.47000 312.627
35.64000 300.585
35.81000 305.581
35.98000 307.426
36.15000 297.509
36.32000 303.885
36.49000 299.420
36.66000 298.854
36.83000 304.758
37.00000 305.213
37.17000 294.014
37.34000 295.438
37.51000 291.046
37.68000 281.083
37.85000 271.184
38.02000 301.122
38.19000 294.543
38.36000 305.774
38.53000 409.362
38.70000 853.080
38.87000 897.427
39.04000 414.838
39.21000 303.070
39.38000 253.914
39.55000 270.197
39.72000 266.131
39.89000 267.223
40.06000 256.722
40.23000 257.308
40.40000 252.989
40.57000 255.551
40.74000 225.972
40.91000 239.010
41.08000 245.521
41.25000 248.397
41.42000 239.876
41.59000 234.489
41.76000 241.830
41.93000 238.985
42.10000 242.919
42.27000 244.509
42.44000 240.791
42.61000 231.820
42.78000 234.063
42.95000 229.538
43.12000 228.401
43.29000 232.588
43.46000 212.965
43.63000 225.430
43.80000 221.501
43.97000 216.409
44.14000 214.746
44.31000 224.306
44.48000 219.696
44.65000 222.010
44.82000 238.584
44.99000 258.984
45.16000 299.603
45.33000 268.210
45.50000 262.883
45.67000 246.171
45.84000 224.720
46.01000 216.422
46.18000 210.793
46.35000 198.769
46.52000 223.876
46.69000 226.473
46.86000 201.949
47.03000 194.625
47.20000 194.544
47.37000 184.562
47.54000 192.651
47.71000 188.631
47.88000 188.174
48.05000 186.597
48.22000 192.140
48.39000 191.495
48.56000 181.590
48.73000 182.682
48.90000 165.807
49.07000 170.588
49.24000 182.126
49.41000 174.224
49.58000 164.017
49.75000 167.007
49.92000 174.864
50.09000 160.259
50.26000 181.318
50.43000 165.841
50.60000 194.199
50.77000 222.381
50.94000 218.186
51.11000 185.276
51.28000 165.651
51.45000 181.805
51.62000 168.444
51.79000 156.972
51.96000 157.332
52.13000 161.432
52.30000 162.994
52.47000 157.111
52.64000 154.261
52.81000 144.648
52.98000 158.917
53.15000 160.851
53.32000 157.904
53.49000 150.660
53.66000 162.881
53.83000 145.179
54.00000 149.972
54.17000 157.350
54.34000 159.299
54.51000 150.216
54.68000 148.856
54.85000 160.058
55.02000 155.280
55.19000 163.275
55.36000 165.909
55.53000 175.411
55.70000 238.740
55.87000 409.558
56.04000 589.840
56.21000 476.531
56.38000 264.473
56.55000 197.250
56.72000 154.079
56.89000 152.614
57.06000 141.578
57.23000 150.115
57.40000 139.871
57.57000 137.962
57.74000 146.677
57.91000 146.316
58.08000 149.999
58.25000 135.218
58.42000 139.123
58.59000 123.690
58.76000 143.735
58.93000 123.545
59.10000 138.975
59.27000 134.988
59.44000 131.074
59.61000 128.449
59.78000 138.318
59.95000 132.130
60.12000 137.468
60.29000 131.730
60.46000 138.834
60.63000 130.994
60.80000 139.414
60.97000 132.459
61.14000 139.584
61.31000 141.335
61.48000 144.260
61.65000 248.647
61.82000 217.464
61.99000 139.658
62.16000 146.517
62.33000 135.640
62.50000 140.550
62.67000 141.313
62.84000 146.726
63.01000 144.855
63.18000 159.773
63.35000 161.100
63.52000 146.248
63.69000 140.184
63.86000 137.510
64.03000 155.656
64.20000 155.759
64.37000 176.586
64.54000 175.101
64.71000 155.434
64.88000 172.705
65.05000 183.690
65.22000 199.059
65.39000 243.017
65.56000 318.429
65.73000 577.750
65.90000 1030.547
66.07000 389.604
66.24000 298.004
66.41000 428.047
66.58000 345.938
66.75000 309.194
66.92000 339.365
67.09000 356.340
67.26000 377.537
67.43000 405.509
67.60000 413.944
67.77000 483.980
67.94000 490.480
68.11000 526.891
68.28000 615.159
68.45000 720.898
68.62000 964.263
68.79000 1799.182
68.96000 10247.999
69.13000 53714.383
69.30000 32418.305
69.47000 8413.310
69.64000 1227.734
69.81000 821.266
69.98000 683.084
70.00000 649.773

File: BTO_Mapping_Theta2Theta_22-09-2025_001_06_50-000_0-000.xy
20.00000 1368.197
20.17000 1354.104
20.34000 1328.367
20.51000 1344.113
20.68000 1306.248
20.85000 1321.790
21.02000 1301.701
21.19000 1317.891
21.36000 1297.537
21.53000 1228.928
21.70000 1219.860
21.87000 1213.912
22.04000 1185.220
22.21000 1196.290
22.38000 1164.028
22.55000 1149.417
22.72000 1128.152
22.89000 1133.971
23.06000 1133.019
23.23000 1071.150
23.40000 1087.163
23.57000 1075.848
23.74000 1059.921
23.91000 1094.245
24.08000 1068.087
24.25000 1025.885
24.42000 994.937
24.59000 1020.914
24.76000 995.993
24.93000 1001.546
25.10000 969.430
25.27000 960.100
25.44000 961.471
25.61000 920.353
25.78000 929.784
25.95000 934.669
26.12000 913.389
26.29000 930.484
26.46000 877.315
26.63000 894.663
26.80000 885.875
26.97000 889.662
27.14000 885.803
27.31000 851.102
27.48000 876.873
27.65000 851.705
27.82000 854.015
27.99000 824.161
28.16000 829.047
28.33000 799.237
28.50000 798.344
28.67000 801.869
28.84000 798.674
29.01000 785.448
29.18000 786.391
29.35000 741.157
29.52000 780.518
29.69000 764.081
29.86000 724.078
30.03000 763.657
30.20000 737.545
30.37000 713.030
30.54000 703.061
30.71000 701.603
30.88000 708.784
31.05000 683.790
31.22000 684.096
31.39000 683.983
31.56000 682.459
31.73000 675.652
31.90000 675.813
32.07000 665.441
32.24000 662.597
32.41000 651.626
32.58000 635.309
32.75000 621.965
32.92000 617.094
33.09000 612.154
33.26000 621.453
33.43000 609.659
33.60000 595.585
33.77000 597.690
33.94000 604.900
34.11000 616.747
34.28000 580.851
34.45000 580.208
34.62000 571.195
34.79000 547.188
34.96000 558.414
35.13000 549.473
35.30000 552.833
35.47000 546.720
35.64000 532.193
35.81000 537.049
35.98000 533.021
36.15000 549.803
36.32000 518.863
36.49000 519.797
36.66000 522.501
36.83000 524.291
37.00000 503.451
37.17000 505.218
37.34000 492.073
37.51000 491.564
37.68000 464.212
37.85000 489.549
38.02000 473.297
38.19000 499.066
38.36000 476.854
38.53000 455.216
38.70000 451.723
38.87000 478.748
39.04000 452.848
39.21000 449.856
39.38000 448.050
39.55000 459.271
39.72000 436.272
39.89000 435.265
40.06000 429.953
40.23000 421.054
40.40000 412.020
40.57000 430.921
40.74000 431.255
40.91000 436.960
41.08000 422.655
41.25000 417.839
41.42000 414.253
41.59000 401.699
41.76000 393.424
41.93000 421.048
42.10000 404.318
42.27000 390.085
42.44000 399.569
42.61000 381.253
42.78000 378.075
42.95000 395.471
43.12000 384.989
43.29000 387.888
43.46000 387.005
43.63000 402.285
43.80000 399.134
43.97000 411.807
44.14000 451.413
44.31000 443.176
44.48000 393.875
44.65000 395.582
44.82000 382.277
44.99000 382.227
45.16000 389.436
45.33000 369.186
45.50000 370.828
45.67000 368.605
45.84000 361.404
46.01000 365.106
46.18000 366.525
46.35000 374.260
46.52000 378.996
46.69000 358.729
46.86000 369.655
47.03000 355.735
47.20000 363.825
47.37000 356.503
47.54000 332.504
47.71000 373.076
47.88000 351.529
48.05000 359.999
48.22000 355.702
48.39000 354.217
48.56000 353.140
48.73000 376.911
48.90000 344.429
49.07000 350.353
49.24000 362.074
49.41000 377.749
49.58000 349.399
49.75000 359.986
49.92000 356.341
50.09000 360.767
50.26000 364.030
50.43000 370.536
50.60000 360.204
50.77000 358.757
50.94000 382.905
51.11000 358.019
51.28000 356.529
51.45000 352.090
51.62000 370.125
51.79000 374.290
51.96000 369.239
52.13000 371.732
52.30000 361.656
52.47000 360.794
52.64000 383.855
52.81000 370.439
52.98000 367.222
53.15000 362.570
53.32000 384.000
53.49000 364.575
53.66000 388.641
53.83000 380.845
54.00000 380.954
54.17000 389.450
54.34000 379.730
54.51000 355.721
54.68000 391.563
54.85000 409.440
55.02000 391.761
55.19000 389.585
55.36000 403.042
55.53000 393.985
55.70000 404.495
55.87000 415.764
56.04000 412.308
56.21000 401.965
56.38000 414.071
56.55000 398.145
56.72000 391.188
56.89000 408.298
57.06000 409.234
57.23000 420.531
57.40000 416.216
57.57000 408.072
57.74000 418.782
57.91000 413.280
58.08000 453.201
58.25000 440.981
58.42000 433.110
58.59000 440.420
58.76000 453.132
58.93000 430.493
59.10000 431.805
59.27000 449.540
59.44000 457.109
59.61000 441.958
59.78000 460.138
59.95000 454.914
60.12000 463.746
60.29000 470.032
60.46000 459.828
60.63000 478.158
60.80000 475.508
60.97000 471.666
61.14000 468.039
61.31000 496.826
61.48000 469.380
61.65000 463.285
61.82000 485.364
61.99000 516.871
62.16000 498.086
62.33000 491.281
62.50000 517.619
62.67000 508.772
62.84000 485.540
63.01000 504.274
63.18000 540.944
63.35000 516.074
63.52000 545.662
63.69000 550.705
63.86000 533.605
64.03000 561.953
64.20000 569.595
64.37000 613.020
64.54000 635.983
64.71000 605.150
64.88000 588.262
65.05000 558.818
65.22000 574.016
65.39000 568.996
65.56000 578.396
65.73000 614.100
65.90000 603.705
66.07000 591.842
66.24000 590.583
66.41000 591.262
66.58000 585.888
66.75000 603.826
66.92000 617.695
67.09000 598.367
67.26000 631.427
67.43000 612.420
67.60000 619.711
67.77000 614.859
67.94000 629.218
68.11000 646.539
68.28000 614.762
68.45000 644.063
68.62000 689.647
68.79000 720.118
68.96000 3115.827
69.13000 3127.707
69.30000 1716.458
69.47000 766.242
69.64000 749.896
69.81000 758.864
69.98000 745.453
70.00000 768.910

File: BTO_Mapping_Theta2Theta_22-09-2025_001_11_45-048_21-694.xy
20.00000 1194.571
20.17000 1157.741
20.34000 1140.401
20.51000 1153.519
20.68000 1138.126
20.85000 1153.199
21.02000 1126.481
21.19000 1086.133
21.36000 1098.947
21.53000 1037.177
21.70000 1045.730
21.87000 1062.442
22.04000 1013.962
22.21000 1021.395
22.38000 1020.782
22.55000 984.986
22.72000 999.394
22.89000 984.219
23.06000 976.084
23.23000 970.228
23.40000 938.713
23.57000 972.732
23.74000 925.435
23.91000 924.728
24.08000 921.143
24.25000 909.012
24.42000 899.824
24.59000 904.619
24.76000 871.709
24.93000 877.654
25.10000 858.814
25.27000 865.511
25.44000 852.283
25.61000 839.805
25.78000 837.747
25.95000 806.822
26.12000 784.639
26.29000 795.766
26.46000 789.026
26.63000 775.698
26.80000 771.646
26.97000 787.011
27.14000 776.599
27.31000 747.214
27.48000 747.713
27.65000 749.671
27.82000 739.189
27.99000 692.275
28.16000 713.317
28.33000 706.878
28.50000 670.276
28.67000 696.945
28.84000 665.544
29.01000 674.089
29.18000 671.758
29.35000 665.915
29.52000 651.834
29.69000 655.163
29.86000 652.470
30.03000 632.451
30.20000 647.507
30.37000 639.121
30.54000 622.805
30.71000 598.568
30.88000 606.689
31.05000 602.068
31.22000 585.921
31.39000 592.266
31.56000 596.364
31.73000 569.120
31.90000 571.137
32.07000 565.417
32.24000 571.097
32.41000 580.213
32.58000 553.147
32.75000 532.064
32.92000 551.328
33.09000 557.116
33.26000 534.735
33.43000 532.232
33.60000 534.272
33.77000 520.363
33.94000 525.226
34.11000 510.665
34.28000 507.606
34.45000 495.673
34.62000 497.606
34.79000 520.182
34.96000 502.341
35.13000 491.412
35.30000 461.344
35.47000 471.224
35.64000 478.117
35.81000 470.458
35.98000 469.359
36.15000 446.710
36.32000 464.789
36.49000 457.185
36.66000 446.053
36.83000 453.654
37.00000 448.644
37.17000 427.642
37.34000 427.615
37.51000 405.086
37.68000 423.251
37.85000 423.830
38.02000 432.360
38.19000 409.504
38.36000 398.863
38.53000 408.352
38.70000 402.522
38.87000 402.011
39.04000 378.271
39.21000 395.412
39.38000 402.501
39.55000 387.405
39.72000 383.984
39.89000 374.728
40.06000 376.981
40.23000 377.196
40.40000 378.812
40.57000 383.655
40.74000 370.547
40.91000 360.962
41.08000 362.806
41.25000 356.951
41.42000 363.356
41.59000 355.605
41.76000 351.599
41.93000 336.432
42.10000 340.892
42.27000 333.669
42.44000 325.752
42.61000 325.289
42.78000 333.823
42.95000 331.433
43.12000 334.857
43.29000 318.473
43.46000 330.515
43.63000 331.101
43.80000 331.973
43.97000 303.235
44.14000 298.358
44.31000 318.708
44.48000 309.126
44.65000 296.483
44.82000 309.325
44.99000 284.482
45.16000 294.486
45.33000 290.821
45.50000 297.684
45.67000 291.562
45.84000 290.369
46.01000 300.044
46.18000 283.506
46.35000 294.970
46.52000 290.976
46.69000 268.857
46.86000 273.827
47.03000 279.044
47.20000 271.620
47.37000 264.205
47.54000 269.563
47.71000 267.917
47.88000 268.233
48.05000 264.504
48.22000 262.326
48.39000 252.850
48.56000 252.153
48.73000 258.405
48.90000 244.032
49.07000 257.410
49.24000 248.342
49.41000 252.051
49.58000 252.995
49.75000 255.417
49.92000 254.337
50.09000 251.152
50.26000 251.413
50.43000 252.128
50.60000 239.704
50.77000 249.701
50.94000 251.145
51.11000 246.603
51.28000 241.063
51.45000 245.284
51.62000 242.269
51.79000 243.936
51.96000 238.939
52.13000 232.927
52.30000 240.904
52.47000 250.550
52.64000 243.815
52.81000 247.760
52.98000 240.842
53.15000 240.156
53.32000 254.892
53.49000 265.043
53.66000 247.731
53.83000 239.168
54.00000 230.665
54.17000 247.500
54.34000 256.601
54.51000 257.306
54.68000 236.622
54.85000 239.291
55.02000 264.585
55.19000 269.647
55.36000 270.555
55.53000 276.377
55.70000 262.685
55.87000 264.864
56.04000 284.790
56.21000 283.014
56.38000 279.154
56.55000 279.112
56.72000 296.907
56.89000 298.490
57.06000 323.626
57.23000 297.430
57.40000 297.092
57.57000 332.160
57.74000 328.514
57.91000 325.390
58.08000 316.664
58.25000 317.866
58.42000 317.527
58.59000 328.577
58.76000 345.975
58.93000 349.485
59.10000 344.887
59.27000 373.255
59.44000 355.351
59.61000 374.899
59.78000 382.458
59.95000 401.939
60.12000 391.894
60.29000 400.680
60.46000 398.147
60.63000 407.924
60.80000 407.832
60.97000 417.308
61.14000 435.064
61.31000 432.884
61.48000 450.477
61.65000 513.751
61.82000 470.766
61.99000 457.326
62.16000 461.226
62.33000 480.320
62.50000 490.430
62.67000 500.630
62.84000 497.766
63.01000 512.388
63.18000 516.588
63.35000 526.550
63.52000 512.163
63.69000 547.592
63.86000 540.701
64.03000 566.250
64.20000 572.258
64.37000 646.487
64.54000 661.150
64.71000 641.291
64.88000 631.706
65.05000 628.026
65.22000 624.050
65.39000 640.268
65.56000 660.425
65.73000 867.439
65.90000 968.544
66.07000 659.368
66.24000 716.761
66.41000 745.924
66.58000 690.637
66.75000 714.336
66.92000 737.761
67.09000 770.153
67.26000 758.536
67.43000 778.894
67.60000 826.497
67.77000 831.412
67.94000 847.208
68.11000 887.929
68.28000 921.536
68.45000 973.981
68.62000 1154.444
68.79000 1592.067
68.96000 10255.787
69.13000 26630.992
69.30000 13984.688
69.47000 1933.076
69.64000 1190.428
69.81000 1050.861
69.98000 1042.640
70.00000 1021.707

File: BTO_Mapping_Theta2Theta_22-09-2025_001_12_6-235_7-818.xy
20.00000 562.729
20.17000 576.679
20.34000 566.108
20.51000 573.381
20.68000 536.855
20.85000 544.749
21.02000 565.540
21.19000 567.175
21.36000 561.987
21.53000 590.187
21.70000 570.962
21.87000 665.221
22.04000 781.357
22.21000 714.533
22.38000 634.220
22.55000 569.541
22.72000 552.183
22.89000 525.202
23.06000 506.067
23.23000 520.050
23.40000 495.027
23.57000 511.343
23.74000 510.053
23.91000 510.390
24.08000 489.153
24.25000 513.659
24.42000 471.702
24.59000 487.727
24.76000 465.483
24.93000 476.697
25.10000 477.045
25.27000 476.277
25.44000 489.901
25.61000 475.245
25.78000 466.205
25.95000 471.383
26.12000 456.793
26.29000 468.065
26.46000 447.378
26.63000 455.358
26.80000 464.547
26.97000 448.540
27.14000 436.133
27.31000 444.359
27.48000 432.033
27.65000 430.085
27.82000 440.294
27.99000 417.573
28.16000 424.618
28.33000 439.557
28.50000 420.739
28.67000 423.641
28.84000 419.692
29.01000 408.456
29.18000 429.507
29.35000 423.182
29.52000 423.663
29.69000 415.822
29.86000 431.378
30.03000 452.825
30.20000 450.535
30.37000 454.388
30.54000 455.933
30.71000 454.679
30.88000 505.248
31.05000 752.937
31.22000 1860.786
31.39000 3417.422
31.56000 2092.999
31.73000 820.196
31.90000 511.211
32.07000 433.083
32.24000 418.818
32.41000 382.651
32.58000 401.681
32.75000 394.684
32.92000 410.812
33.09000 377.198
33.26000 355.837
33.43000 351.454
33.60000 358.928
33.77000 342.203
33.94000 371.919
34.11000 348.304
34.28000 339.954
34.45000 335.317
34.62000 336.024
34.79000 324.482
34.96000 315.693
35.13000 312.757
35.30000 304.605
35.47000 306.868
35.64000 300.596
35.81000 299.563
35.98000 310.376
36.15000 298.634
36.32000 296.736
36.49000 319.657
36.66000 290.965
36.83000 303.379
37.00000 295.863
37.17000 297.164
37.34000 292.606
37.51000 292.719
37.68000 304.739
37.85000 293.021
38.02000 291.471
38.19000 323.904
38.36000 353.891
38.53000 560.775
38.70000 996.467
38.87000 741.933
39.04000 392.405
39.21000 301.595
39.38000 296.005
39.55000 278.153
39.72000 268.734
39.89000 269.074
40.06000 265.190
40.23000 263.725
40.40000 264.332
40.57000 256.477
40.74000 254.745
40.91000 244.896
41.08000 252.908
41.25000 245.578
41.42000 256.055
41.59000 250.699
41.76000 239.689
41.93000 235.694
42.10000 230.340
42.27000 231.404
42.44000 244.030
42.61000 233.153
42.78000 227.625
42.95000 239.728
43.12000 241.481
43.29000 242.429
43.46000 213.933
43.63000 227.359
43.80000 234.494
43.97000 226.790
44.14000 238.001
44.31000 227.827
44.48000 227.120
44.65000 242.924
44.82000 298.139
44.99000 394.082
45.16000 418.624
45.33000 339.299
45.50000 297.229
45.67000 257.310
45.84000 237.793
46.01000 212.576
46.18000 214.191
46.35000 202.726
46.52000 218.015
46.69000 195.723
46.86000 201.263
47.03000 206.471
47.20000 190.035
47.37000 183.420
47.54000 189.813
47.71000 187.297
47.88000 202.084
48.05000 186.176
48.22000 186.343
48.39000 181.548
48.56000 185.500
48.73000 181.308
48.90000 180.910
49.07000 191.764
49.24000 172.924
49.41000 190.100
49.58000 172.967
49.75000 177.807
49.92000 183.481
50.09000 179.363
50.26000 162.041
50.43000 187.182
50.60000 226.215
50.77000 265.635
50.94000 224.222
51.11000 193.147
51.28000 178.734
51.45000 170.368
51.62000 178.102
51.79000 164.064
51.96000 174.265
52.13000 176.603
52.30000 156.214
52.47000 153.581
52.64000 152.148
52.81000 160.794
52.98000 157.722
53.15000 148.410
53.32000 151.772
53.49000 162.856
53.66000 151.860
53.83000 157.063
54.00000 157.040
54.17000 151.530
54.34000 150.688
54.51000 153.255
54.68000 159.076
54.85000 172.443
55.02000 160.827
55.19000 174.127
55.36000 182.323
55.53000 209.447
55.70000 286.224
55.87000 496.620
56.04000 532.894
56.21000 355.212
56.38000 241.264
56.55000 182.069
56.72000 174.259
56.89000 165.086
57.06000 163.028
57.23000 143.554
57.40000 141.156
57.57000 144.699
57.74000 140.610
57.91000 145.658
58.08000 146.644
58.25000 140.163
58.42000 139.043
58.59000 130.843
58.76000 120.424
58.93000 133.819
59.10000 138.663
59.27000 130.877
59.44000 131.506
59.61000 136.821
59.78000 137.683
59.95000 131.931
60.12000 129.669
60.29000 131.834
60.46000 132.684
60.63000 133.003
60.80000 139.261
60.97000 131.484
61.14000 138.826
61.31000 146.873
61.48000 147.461
61.65000 303.660
61.82000 220.644
61.99000 149.970
62.16000 142.491
62.33000 140.605
62.50000 138.912
62.67000 141.187
62.84000 136.380
63.01000 131.148
63.18000 149.530
63.35000 152.009
63.52000 152.487
63.69000 146.882
63.86000 159.654
64.03000 149.978
64.20000 165.768
64.37000 169.954
64.54000 167.862
64.71000 183.243
64.88000 175.616
65.05000 206.760
65.22000 239.981
65.39000 318.815
65.56000 443.431
65.73000 792.777
65.90000 1282.200
66.07000 410.788
66.24000 357.513
66.41000 501.875
66.58000 372.744
66.75000 344.146
66.92000 347.103
67.09000 388.342
67.26000 409.996
67.43000 424.986
67.60000 461.513
67.77000 510.132
67.94000 556.307
68.11000 618.047
68.28000 694.235
68.45000 826.146
68.62000 1212.437
68.79000 2352.933
68.96000 17657.885
69.13000 73432.906
69.30000 42685.715
69.47000 9862.030
69.64000 1455.548
69.81000 957.669
69.98000 743.199
70.00000 743.016