Folder: Master-Thesis/XRD/22-09-2025 Dep 2/XY Data (part 4)

File: BTO_Mapping_Theta2Theta_22-09-2025_001_27_-6-235_7-818.xy
20.00000 567.567
20.17000 568.261
20.34000 565.096
20.51000 572.171
20.68000 568.303
20.85000 553.068
21.02000 558.459
21.19000 564.548
21.36000 578.428
21.53000 558.386
21.70000 583.873
21.87000 704.305
22.04000 868.710
22.21000 761.131
22.38000 615.610
22.55000 550.477
22.72000 546.711
22.89000 516.296
23.06000 516.004
23.23000 509.461
23.40000 498.707
23.57000 514.672
23.74000 500.096
23.91000 489.825
24.08000 500.065
24.25000 496.159
24.42000 504.100
24.59000 488.171
24.76000 483.687
24.93000 482.167
25.10000 470.731
25.27000 459.664
25.44000 465.309
25.61000 470.369
25.78000 468.349
25.95000 464.276
26.12000 459.001
26.29000 463.819
26.46000 454.352
26.63000 462.187
26.80000 468.635
26.97000 450.229
27.14000 419.018
27.31000 433.912
27.48000 437.319
27.65000 419.674
27.82000 439.228
27.99000 438.895
28.16000 435.773
28.33000 450.387
28.50000 426.348
28.67000 420.268
28.84000 416.372
29.01000 425.024
29.18000 425.979
29.35000 410.276
29.52000 414.392
29.69000 397.748
29.86000 441.883
30.03000 468.782
30.20000 458.162
30.37000 431.532
30.54000 449.624
30.71000 472.643
30.88000 523.287
31.05000 738.087
31.22000 1941.138
31.39000 3435.743
31.56000 1984.453
31.73000 822.448
31.90000 512.987
32.07000 424.929
32.24000 397.251
32.41000 404.802
32.58000 409.274
32.75000 412.216
32.92000 438.998
33.09000 377.309
33.26000 361.375
33.43000 354.363
33.60000 355.468
33.77000 347.886
33.94000 325.849
34.11000 350.563
34.28000 336.537
34.45000 331.292
34.62000 326.779
34.79000 320.077
34.96000 317.568
35.13000 318.392
35.30000 316.035
35.47000 319.641
35.64000 315.896
35.81000 309.848
35.98000 309.643
36.15000 305.118
36.32000 308.017
36.49000 293.035
36.66000 295.401
36.83000 311.071
37.00000 326.518
37.17000 292.242
37.34000 302.106
37.51000 293.543
37.68000 287.650
37.85000 290.875
38.02000 316.273
38.19000 327.485
38.36000 396.066
38.53000 600.314
38.70000 910.180
38.87000 646.965
39.04000 390.319
39.21000 310.064
39.38000 283.583
39.55000 281.494
39.72000 273.001
39.89000 275.322
40.06000 267.765
40.23000 265.733
40.40000 270.541
40.57000 252.442
40.74000 253.639
40.91000 257.690
41.08000 274.283
41.25000 229.377
41.42000 237.492
41.59000 241.613
41.76000 229.448
41.93000 242.805
42.10000 241.702
42.27000 251.839
42.44000 237.442
42.61000 222.382
42.78000 226.004
42.95000 247.518
43.12000 229.416
43.29000 226.948
43.46000 242.378
43.63000 225.614
43.80000 247.785
43.97000 219.057
44.14000 220.352
44.31000 241.686
44.48000 248.645
44.65000 259.702
44.82000 358.857
44.99000 451.279
45.16000 435.660
45.33000 362.414
45.50000 302.035
45.67000 263.244
45.84000 230.516
46.01000 219.815
46.18000 222.083
46.35000 204.960
46.52000 192.235
46.69000 211.308
46.86000 198.210
47.03000 201.115
47.20000 184.617
47.37000 190.814
47.54000 197.086
47.71000 191.103
47.88000 179.394
48.05000 192.280
48.22000 186.694
48.39000 195.375
48.56000 174.686
48.73000 185.616
48.90000 187.597
49.07000 188.332
49.24000 183.251
49.41000 176.363
49.58000 181.932
49.75000 176.973
49.92000 179.351
50.09000 175.964
50.26000 190.802
50.43000 211.627
50.60000 252.391
50.77000 281.466
50.94000 216.813
51.11000 204.067
51.28000 191.845
51.45000 174.799
51.62000 184.487
51.79000 165.850
51.96000 164.111
52.13000 168.422
52.30000 158.706
52.47000 163.108
52.64000 153.059
52.81000 162.374
52.98000 163.932
53.15000 169.886
53.32000 149.004
53.49000 164.128
53.66000 159.930
53.83000 161.468
54.00000 158.568
54.17000 160.879
54.34000 171.825
54.51000 167.669
54.68000 164.098
54.85000 169.659
55.02000 161.009
55.19000 173.853
55.36000 176.942
55.53000 226.946
55.70000 349.883
55.87000 545.471
56.04000 546.402
56.21000 357.017
56.38000 249.114
56.55000 190.849
56.72000 164.947
56.89000 159.376
57.06000 150.291
57.23000 152.345
57.40000 146.791
57.57000 146.040
57.74000 150.678
57.91000 149.254
58.08000 142.859
58.25000 144.349
58.42000 137.835
58.59000 144.587
58.76000 129.451
58.93000 125.290
59.10000 134.179
59.27000 133.508
59.44000 136.404
59.61000 139.476
59.78000 137.781
59.95000 126.845
60.12000 130.237
60.29000 132.348
60.46000 137.295
60.63000 133.232
60.80000 131.743
60.97000 139.680
61.14000 139.968
61.31000 138.295
61.48000 166.348
61.65000 336.752
61.82000 219.113
61.99000 157.623
62.16000 145.567
62.33000 143.090
62.50000 135.581
62.67000 148.082
62.84000 144.611
63.01000 139.396
63.18000 142.643
63.35000 152.099
63.52000 150.802
63.69000 159.342
63.86000 148.823
64.03000 151.629
64.20000 156.755
64.37000 171.785
64.54000 174.563
64.71000 179.819
64.88000 194.581
65.05000 207.813
65.22000 258.575
65.39000 341.742
65.56000 429.156
65.73000 908.595
65.90000 1510.264
66.07000 465.610
66.24000 361.376
66.41000 548.414
66.58000 399.215
66.75000 352.647
66.92000 374.056
67.09000 407.279
67.26000 439.161
67.43000 476.996
67.60000 514.220
67.77000 537.427
67.94000 576.056
68.11000 646.147
68.28000 735.088
68.45000 885.974
68.62000 1337.786
68.79000 2790.965
68.96000 22535.535
69.13000 88111.141
69.30000 51147.102
69.47000 11620.979
69.64000 1622.755
69.81000 1016.497
69.98000 808.500
70.00000 792.679

File: BTO_Mapping_Theta2Theta_22-09-2025_001_32_-9-010_4-339.xy
20.00000 563.782
20.17000 556.920
20.34000 567.320
20.51000 559.756
20.68000 543.616
20.85000 566.754
21.02000 560.937
21.19000 556.013
21.36000 572.307
21.53000 562.667
21.70000 608.451
21.87000 727.921
22.04000 874.211
22.21000 756.325
22.38000 626.733
22.55000 566.168
22.72000 537.071
22.89000 515.980
23.06000 508.644
23.23000 522.534
23.40000 501.179
23.57000 508.254
23.74000 511.158
23.91000 513.957
24.08000 476.081
24.25000 492.235
24.42000 504.733
24.59000 477.484
24.76000 490.306
24.93000 482.388
25.10000 483.256
25.27000 467.722
25.44000 505.702
25.61000 465.003
25.78000 474.470
25.95000 476.507
26.12000 461.346
26.29000 481.373
26.46000 455.284
26.63000 455.041
26.80000 474.933
26.97000 460.886
27.14000 452.989
27.31000 438.953
27.48000 443.598
27.65000 438.962
27.82000 440.445
27.99000 428.840
28.16000 430.805
28.33000 438.595
28.50000 427.272
28.67000 422.304
28.84000 422.877
29.01000 417.978
29.18000 421.377
29.35000 415.748
29.52000 440.908
29.69000 414.253
29.86000 431.136
30.03000 450.374
30.20000 452.364
30.37000 442.200
30.54000 444.502
30.71000 475.625
30.88000 515.460
31.05000 707.202
31.22000 1951.344
31.39000 3417.621
31.56000 1959.905
31.73000 791.753
31.90000 516.557
32.07000 450.467
32.24000 399.017
32.41000 413.875
32.58000 389.548
32.75000 403.024
32.92000 446.487
33.09000 391.929
33.26000 358.348
33.43000 360.747
33.60000 347.483
33.77000 358.369
33.94000 354.218
34.11000 319.384
34.28000 321.325
34.45000 323.796
34.62000 343.485
34.79000 319.542
34.96000 327.985
35.13000 331.025
35.30000 315.512
35.47000 323.734
35.64000 314.025
35.81000 310.594
35.98000 308.632
36.15000 296.838
36.32000 293.246
36.49000 301.878
36.66000 321.770
36.83000 292.094
37.00000 292.764
37.17000 297.201
37.34000 308.518
37.51000 302.122
37.68000 300.573
37.85000 293.519
38.02000 309.505
38.19000 318.039
38.36000 371.150
38.53000 608.153
38.70000 927.419
38.87000 616.915
39.04000 372.905
39.21000 304.192
39.38000 294.663
39.55000 281.288
39.72000 289.994
39.89000 284.236
40.06000 276.801
40.23000 276.547
40.40000 272.171
40.57000 260.304
40.74000 263.247
40.91000 249.697
41.08000 257.163
41.25000 252.692
41.42000 255.710
41.59000 259.580
41.76000 248.310
41.93000 240.929
42.10000 232.181
42.27000 236.402
42.44000 234.596
42.61000 239.642
42.78000 242.489
42.95000 231.101
43.12000 232.973
43.29000 233.080
43.46000 224.684
43.63000 222.928
43.80000 229.485
43.97000 226.709
44.14000 236.227
44.31000 237.354
44.48000 250.339
44.65000 289.311
44.82000 361.629
44.99000 470.738
45.16000 450.947
45.33000 355.363
45.50000 294.778
45.67000 251.991
45.84000 241.988
46.01000 222.223
46.18000 219.724
46.35000 207.883
46.52000 207.384
46.69000 188.081
46.86000 201.431
47.03000 208.843
47.20000 184.494
47.37000 178.020
47.54000 194.655
47.71000 185.739
47.88000 184.278
48.05000 183.444
48.22000 190.390
48.39000 178.076
48.56000 179.249
48.73000 183.635
48.90000 183.343
49.07000 178.871
49.24000 169.454
49.41000 177.634
49.58000 176.711
49.75000 185.835
49.92000 174.475
50.09000 179.924
50.26000 190.780
50.43000 206.373
50.60000 245.587
50.77000 258.377
50.94000 225.404
51.11000 201.395
51.28000 181.478
51.45000 175.726
51.62000 173.308
51.79000 162.732
51.96000 166.901
52.13000 158.011
52.30000 170.908
52.47000 160.426
52.64000 161.722
52.81000 162.364
52.98000 159.313
53.15000 151.094
53.32000 162.078
53.49000 161.319
53.66000 162.496
53.83000 162.516
54.00000 153.559
54.17000 160.923
54.34000 160.641
54.51000 160.916
54.68000 160.564
54.85000 155.967
55.02000 173.342
55.19000 176.049
55.36000 191.118
55.53000 240.294
55.70000 350.141
55.87000 556.866
56.04000 555.189
56.21000 368.896
56.38000 246.786
56.55000 187.418
56.72000 172.256
56.89000 159.893
57.06000 155.178
57.23000 149.600
57.40000 150.616
57.57000 143.439
57.74000 139.121
57.91000 150.671
58.08000 145.327
58.25000 139.238
58.42000 142.073
58.59000 126.928
58.76000 130.779
58.93000 141.728
59.10000 140.203
59.27000 137.161
59.44000 139.128
59.61000 125.012
59.78000 138.298
59.95000 132.310
60.12000 131.200
60.29000 135.120
60.46000 135.124
60.63000 130.610
60.80000 136.961
60.97000 129.048
61.14000 133.572
61.31000 140.507
61.48000 156.119
61.65000 354.513
61.82000 223.310
61.99000 154.127
62.16000 144.732
62.33000 144.336
62.50000 156.392
62.67000 150.061
62.84000 145.031
63.01000 148.489
63.18000 143.356
63.35000 165.148
63.52000 148.073
63.69000 153.482
63.86000 151.488
64.03000 167.731
64.20000 161.300
64.37000 162.107
64.54000 162.949
64.71000 170.656
64.88000 198.218
65.05000 201.304
65.22000 241.971
65.39000 336.828
65.56000 443.788
65.73000 942.103
65.90000 1575.804
66.07000 487.644
66.24000 393.749
66.41000 591.890
66.58000 408.528
66.75000 366.147
66.92000 389.218
67.09000 417.740
67.26000 430.235
67.43000 464.831
67.60000 520.807
67.77000 557.957
67.94000 586.047
68.11000 664.997
68.28000 756.831
68.45000 906.332
68.62000 1436.068
68.79000 2856.518
68.96000 23383.781
69.13000 92191.164
69.30000 53701.492
69.47000 12331.851
69.64000 1686.075
69.81000 1046.198
69.98000 845.829
70.00000 825.909

File: BTO_Mapping_Theta2Theta_22-09-2025_001_33_-18-019_8-678.xy
20.00000 562.865
20.17000 563.816
20.34000 569.954
20.51000 574.923
20.68000 554.227
20.85000 550.577
21.02000 552.849
21.19000 547.271
21.36000 553.940
21.53000 586.245
21.70000 627.029
21.87000 773.956
22.04000 915.282
22.21000 762.468
22.38000 613.978
22.55000 558.402
22.72000 534.050
22.89000 515.239
23.06000 505.498
23.23000 512.614
23.40000 512.793
23.57000 526.193
23.74000 511.243
23.91000 506.104
24.08000 516.071
24.25000 507.273
24.42000 479.726
24.59000 489.190
24.76000 490.850
24.93000 503.727
25.10000 484.041
25.27000 466.545
25.44000 473.721
25.61000 449.526
25.78000 465.518
25.95000 477.489
26.12000 464.429
26.29000 459.514
26.46000 449.891
26.63000 448.853
26.80000 445.322
26.97000 430.000
27.14000 431.564
27.31000 458.903
27.48000 461.307
27.65000 452.370
27.82000 426.991
27.99000 434.361
28.16000 433.385
28.33000 429.895
28.50000 421.518
28.67000 450.605
28.84000 421.817
29.01000 420.632
29.18000 429.201
29.35000 421.840
29.52000 427.102
29.69000 419.804
29.86000 421.594
30.03000 471.317
30.20000 433.319
30.37000 434.344
30.54000 434.934
30.71000 459.841
30.88000 498.154
31.05000 755.938
31.22000 2055.726
31.39000 3442.953
31.56000 1861.692
31.73000 744.919
31.90000 500.898
32.07000 444.203
32.24000 417.627
32.41000 383.425
32.58000 402.129
32.75000 398.563
32.92000 421.724
33.09000 376.831
33.26000 355.373
33.43000 328.611
33.60000 352.539
33.77000 352.034
33.94000 346.554
34.11000 344.799
34.28000 352.119
34.45000 339.220
34.62000 328.984
34.79000 334.583
34.96000 312.778
35.13000 331.419
35.30000 332.501
35.47000 337.198
35.64000 314.957
35.81000 300.263
35.98000 323.091
36.15000 302.894
36.32000 316.049
36.49000 290.815
36.66000 296.592
36.83000 298.393
37.00000 296.531
37.17000 310.017
37.34000 305.774
37.51000 298.505
37.68000 297.671
37.85000 303.381
38.02000 309.427
38.19000 315.144
38.36000 391.859
38.53000 633.635
38.70000 803.853
38.87000 551.979
39.04000 380.725
39.21000 319.782
39.38000 297.147
39.55000 276.875
39.72000 274.373
39.89000 277.476
40.06000 268.336
40.23000 279.497
40.40000 273.811
40.57000 257.976
40.74000 253.557
40.91000 231.528
41.08000 262.196
41.25000 253.948
41.42000 256.937
41.59000 249.238
41.76000 253.654
41.93000 232.634
42.10000 237.004
42.27000 231.539
42.44000 237.720
42.61000 238.252
42.78000 237.010
42.95000 236.700
43.12000 233.360
43.29000 240.898
43.46000 219.281
43.63000 234.077
43.80000 219.013
43.97000 227.278
44.14000 235.048
44.31000 246.580
44.48000 246.477
44.65000 309.895
44.82000 432.239
44.99000 521.005
45.16000 455.388
45.33000 361.359
45.50000 289.643
45.67000 261.464
45.84000 240.832
46.01000 217.428
46.18000 218.358
46.35000 213.956
46.52000 208.062
46.69000 208.579
46.86000 211.646
47.03000 197.055
47.20000 198.533
47.37000 200.038
47.54000 208.333
47.71000 177.493
47.88000 192.252
48.05000 183.547
48.22000 185.262
48.39000 192.079
48.56000 195.269
48.73000 188.769
48.90000 186.113
49.07000 173.236
49.24000 185.574
49.41000 174.047
49.58000 187.697
49.75000 171.847
49.92000 175.575
50.09000 188.719
50.26000 204.721
50.43000 214.824
50.60000 271.764
50.77000 273.035
50.94000 228.820
51.11000 192.383
51.28000 183.779
51.45000 185.915
51.62000 171.864
51.79000 169.700
51.96000 166.988
52.13000 172.304
52.30000 156.159
52.47000 155.598
52.64000 170.253
52.81000 160.918
52.98000 156.146
53.15000 151.579
53.32000 162.911
53.49000 164.969
53.66000 164.020
53.83000 168.891
54.00000 154.689
54.17000 157.231
54.34000 161.505
54.51000 153.558
54.68000 162.669
54.85000 161.613
55.02000 172.180
55.19000 169.702
55.36000 199.111
55.53000 252.634
55.70000 407.769
55.87000 572.094
56.04000 490.114
56.21000 328.348
56.38000 217.283
56.55000 195.081
56.72000 172.080
56.89000 152.310
57.06000 163.612
57.23000 153.122
57.40000 149.856
57.57000 151.279
57.74000 144.278
57.91000 143.131
58.08000 143.872
58.25000 140.745
58.42000 147.393
58.59000 137.070
58.76000 160.525
58.93000 148.873
59.10000 138.665
59.27000 143.020
59.44000 131.916
59.61000 139.358
59.78000 131.476
59.95000 127.694
60.12000 130.072
60.29000 128.954
60.46000 141.806
60.63000 126.488
60.80000 137.999
60.97000 138.030
61.14000 141.224
61.31000 146.223
61.48000 151.656
61.65000 368.121
61.82000 231.309
61.99000 144.948
62.16000 135.595
62.33000 145.908
62.50000 140.274
62.67000 146.781
62.84000 143.534
63.01000 139.907
63.18000 153.118
63.35000 148.783
63.52000 169.302
63.69000 161.493
63.86000 155.999
64.03000 157.704
64.20000 176.823
64.37000 174.425
64.54000 169.010
64.71000 183.758
64.88000 190.963
65.05000 217.738
65.22000 264.656
65.39000 348.531
65.56000 442.823
65.73000 913.225
65.90000 1563.480
66.07000 467.346
66.24000 395.523
66.41000 575.154
66.58000 423.473
66.75000 349.867
66.92000 387.611
67.09000 407.593
67.26000 433.225
67.43000 483.226
67.60000 501.572
67.77000 566.195
67.94000 620.389
68.11000 676.618
68.28000 745.356
68.45000 900.641
68.62000 1398.482
68.79000 2859.394
68.96000 23781.920
69.13000 93684.508
69.30000 54024.461
69.47000 12289.315
69.64000 1667.962
69.81000 1061.347
69.98000 818.167
70.00000 832.357

File: BTO_Mapping_Theta2Theta_22-09-2025_001_34_-27-029_13-017.xy
20.00000 575.511
20.17000 559.478
20.34000 558.228
20.51000 586.300
20.68000 572.203
20.85000 557.188
21.02000 571.794
21.19000 567.046
21.36000 572.291
21.53000 581.273
21.70000 637.755
21.87000 794.036
22.04000 910.283
22.21000 722.835
22.38000 592.388
22.55000 561.385
22.72000 534.517
22.89000 525.081
23.06000 531.944
23.23000 510.925
23.40000 512.044
23.57000 510.507
23.74000 510.651
23.91000 491.900
24.08000 492.895
24.25000 497.492
24.42000 513.097
24.59000 502.512
24.76000 500.379
24.93000 484.132
25.10000 488.131
25.27000 476.579
25.44000 484.873
25.61000 485.993
25.78000 477.366
25.95000 487.766
26.12000 459.938
26.29000 464.624
26.46000 465.445
26.63000 449.523
26.80000 451.794
26.97000 455.554
27.14000 450.195
27.31000 436.656
27.48000 450.830
27.65000 436.115
27.82000 446.574
27.99000 437.196
28.16000 451.601
28.33000 432.818
28.50000 418.876
28.67000 440.189
28.84000 431.516
29.01000 405.669
29.18000 419.519
29.35000 416.083
29.52000 432.786
29.69000 412.794
29.86000 444.527
30.03000 476.877
30.20000 439.732
30.37000 439.844
30.54000 456.844
30.71000 441.387
30.88000 491.780
31.05000 871.053
31.22000 3006.321
31.39000 4142.667
31.56000 1766.350
31.73000 684.152
31.90000 481.374
32.07000 415.847
32.24000 399.282
32.41000 416.566
32.58000 403.230
32.75000 382.328
32.92000 414.857
33.09000 385.750
33.26000 360.282
33.43000 352.155
33.60000 362.617
33.77000 353.729
33.94000 351.780
34.11000 334.902
34.28000 341.516
34.45000 311.117
34.62000 326.177
34.79000 323.305
34.96000 318.117
35.13000 326.613
35.30000 304.014
35.47000 313.013
35.64000 312.602
35.81000 313.147
35.98000 313.858
36.15000 308.947
36.32000 305.613
36.49000 310.740
36.66000 317.376
36.83000 314.197
37.00000 308.630
37.17000 305.291
37.34000 320.764
37.51000 307.214
37.68000 304.036
37.85000 303.696
38.02000 334.435
38.19000 344.712
38.36000 435.049
38.53000 623.534
38.70000 665.965
38.87000 439.776
39.04000 345.963
39.21000 296.773
39.38000 270.878
39.55000 278.852
39.72000 284.507
39.89000 286.867
40.06000 271.786
40.23000 276.177
40.40000 281.691
40.57000 267.578
40.74000 271.400
40.91000 247.285
41.08000 252.075
41.25000 256.444
41.42000 257.490
41.59000 244.887
41.76000 240.888
41.93000 247.638
42.10000 248.630
42.27000 242.101
42.44000 246.187
42.61000 236.806
42.78000 246.093
42.95000 232.910
43.12000 243.921
43.29000 229.159
43.46000 215.493
43.63000 218.793
43.80000 239.804
43.97000 240.107
44.14000 227.951
44.31000 251.937
44.48000 274.526
44.65000 348.862
44.82000 489.262
44.99000 542.562
45.16000 411.096
45.33000 331.048
45.50000 293.271
45.67000 243.117
45.84000 237.386
46.01000 227.292
46.18000 227.679
46.35000 219.923
46.52000 200.399
46.69000 207.355
46.86000 209.065
47.03000 192.087
47.20000 196.597
47.37000 192.514
47.54000 191.223
47.71000 200.056
47.88000 181.529
48.05000 182.274
48.22000 183.147
48.39000 180.390
48.56000 196.425
48.73000 188.075
48.90000 179.604
49.07000 188.342
49.24000 173.911
49.41000 189.689
49.58000 180.118
49.75000 184.105
49.92000 180.683
50.09000 191.044
50.26000 200.093
50.43000 239.057
50.60000 276.180
50.77000 263.578
50.94000 234.984
51.11000 199.167
51.28000 186.230
51.45000 181.684
51.62000 177.015
51.79000 170.600
51.96000 169.204
52.13000 159.335
52.30000 161.069
52.47000 167.830
52.64000 176.779
52.81000 162.893
52.98000 178.180
53.15000 174.722
53.32000 172.987
53.49000 160.945
53.66000 163.705
53.83000 158.997
54.00000 163.543
54.17000 159.848
54.34000 165.882
54.51000 153.442
54.68000 167.651
54.85000 166.101
55.02000 171.327
55.19000 175.598
55.36000 230.063
55.53000 297.061
55.70000 482.185
55.87000 557.089
56.04000 397.924
56.21000 267.098
56.38000 209.481
56.55000 181.146
56.72000 167.417
56.89000 156.335
57.06000 147.301
57.23000 140.906
57.40000 157.885
57.57000 142.560
57.74000 143.505
57.91000 155.224
58.08000 144.157
58.25000 143.335
58.42000 139.229
58.59000 140.907
58.76000 136.848
58.93000 128.622
59.10000 124.396
59.27000 139.743
59.44000 144.452
59.61000 137.742
59.78000 135.688
59.95000 143.766
60.12000 136.352
60.29000 136.549
60.46000 130.364
60.63000 128.539
60.80000 139.724
60.97000 138.672
61.14000 144.555
61.31000 147.207
61.48000 160.774
61.65000 354.883
61.82000 232.914
61.99000 153.351
62.16000 143.248
62.33000 149.956
62.50000 142.066
62.67000 151.243
62.84000 145.948
63.01000 156.221
63.18000 156.565
63.35000 145.353
63.52000 150.383
63.69000 151.054
63.86000 157.658
64.03000 172.544
64.20000 162.621
64.37000 179.213
64.54000 169.360
64.71000 180.650
64.88000 203.132
65.05000 235.387
65.22000 311.272
65.39000 447.391
65.56000 474.488
65.73000 906.509
65.90000 1609.801
66.07000 477.332
66.24000 384.493
66.41000 572.141
66.58000 421.492
66.75000 361.545
66.92000 396.875
67.09000 402.746
67.26000 439.974
67.43000 490.917
67.60000 520.478
67.77000 580.252
67.94000 622.102
68.11000 694.944
68.28000 746.730
68.45000 917.177
68.62000 1365.361
68.79000 2833.411
68.96000 22731.416
69.13000 96998.164
69.30000 56527.945
69.47000 13234.440
69.64000 1727.958
69.81000 1119.631
69.98000 860.632
70.00000 845.708

File: BTO_Mapping_Theta2Theta_22-09-2025_001_36_-45-048_21-694.xy
20.00000 551.569
20.17000 543.662
20.34000 554.847
20.51000 561.442
20.68000 538.258
20.85000 536.891
21.02000 518.143
21.19000 558.939
21.36000 548.483
21.53000 529.977
21.70000 511.266
21.87000 503.772
22.04000 535.049
22.21000 508.444
22.38000 531.823
22.55000 508.069
22.72000 502.317
22.89000 533.514
23.06000 507.524
23.23000 506.404
23.40000 504.849
23.57000 503.078
23.74000 478.630
23.91000 486.599
24.08000 481.907
24.25000 473.295
24.42000 473.430
24.59000 467.275
24.76000 478.035
24.93000 467.340
25.10000 464.658
25.27000 471.969
25.44000 437.597
25.61000 474.672
25.78000 458.579
25.95000 438.005
26.12000 444.647
26.29000 445.644
26.46000 429.922
26.63000 438.607
26.80000 436.892
26.97000 434.360
27.14000 431.697
27.31000 440.823
27.48000 420.191
27.65000 423.794
27.82000 407.457
27.99000 395.497
28.16000 408.209
28.33000 412.805
28.50000 406.395
28.67000 388.730
28.84000 386.195
29.01000 406.524
29.18000 399.028
29.35000 377.731
29.52000 404.478
29.69000 381.340
29.86000 381.237
30.03000 368.556
30.20000 378.850
30.37000 386.133
30.54000 375.668
30.71000 349.007
30.88000 362.031
31.05000 350.695
31.22000 356.051
31.39000 361.694
31.56000 359.485
31.73000 344.827
31.90000 356.751
32.07000 351.846
32.24000 338.501
32.41000 344.352
32.58000 347.401
32.75000 354.951
32.92000 344.915
33.09000 321.301
33.26000 349.011
33.43000 322.277
33.60000 324.329
33.77000 332.425
33.94000 299.516
34.11000 311.958
34.28000 307.433
34.45000 302.238
34.62000 313.799
34.79000 307.587
34.96000 303.721
35.13000 305.883
35.30000 294.620
35.47000 291.635
35.64000 292.667
35.81000 302.004
35.98000 306.046
36.15000 282.017
36.32000 285.069
36.49000 296.208
36.66000 276.130
36.83000 278.335
37.00000 277.191
37.17000 277.720
37.34000 274.775
37.51000 270.360
37.68000 254.081
37.85000 259.434
38.02000 268.825
38.19000 255.179
38.36000 258.395
38.53000 257.816
38.70000 260.919
38.87000 247.348
39.04000 246.477
39.21000 260.199
39.38000 245.171
39.55000 241.657
39.72000 254.858
39.89000 243.070
40.06000 244.390
40.23000 242.475
40.40000 245.556
40.57000 209.059
40.74000 232.285
40.91000 238.828
41.08000 223.425
41.25000 217.766
41.42000 234.462
41.59000 228.889
41.76000 231.327
41.93000 219.851
42.10000 215.973
42.27000 217.717
42.44000 215.713
42.61000 205.718
42.78000 206.016
42.95000 200.702
43.12000 207.593
43.29000 209.455
43.46000 202.525
43.63000 193.996
43.80000 206.578
43.97000 197.477
44.14000 209.706
44.31000 200.696
44.48000 187.115
44.65000 201.535
44.82000 199.811
44.99000 181.135
45.16000 202.536
45.33000 188.826
45.50000 193.087
45.67000 192.563
45.84000 185.089
46.01000 176.529
46.18000 185.039
46.35000 176.158
46.52000 174.789
46.69000 182.781
46.86000 187.083
47.03000 181.440
47.20000 172.725
47.37000 175.338
47.54000 164.043
47.71000 181.010
47.88000 172.151
48.05000 158.456
48.22000 158.230
48.39000 171.376
48.56000 166.886
48.73000 159.265
48.90000 166.083
49.07000 165.170
49.24000 162.497
49.41000 156.917
49.58000 165.709
49.75000 162.149
49.92000 158.200
50.09000 151.919
50.26000 151.102
50.43000 147.381
50.60000 142.947
50.77000 138.311
50.94000 150.535
51.11000 137.811
51.28000 141.719
51.45000 144.603
51.62000 142.951
51.79000 153.974
51.96000 128.855
52.13000 131.157
52.30000 154.526
52.47000 138.005
52.64000 138.182
52.81000 124.282
52.98000 141.921
53.15000 145.791
53.32000 143.756
53.49000 148.132
53.66000 132.762
53.83000 135.170
54.00000 133.220
54.17000 128.953
54.34000 131.626
54.51000 136.669
54.68000 134.066
54.85000 120.834
55.02000 127.017
55.19000 123.798
55.36000 126.334
55.53000 125.764
55.70000 125.212
55.87000 131.107
56.04000 127.230
56.21000 131.539
56.38000 112.374
56.55000 123.222
56.72000 112.773
56.89000 130.162
57.06000 124.490
57.23000 121.446
57.40000 115.367
57.57000 122.009
57.74000 122.082
57.91000 120.138
58.08000 122.071
58.25000 113.669
58.42000 108.082
58.59000 112.646
58.76000 107.580
58.93000 120.005
59.10000 116.739
59.27000 120.955
59.44000 111.802
59.61000 110.613
59.78000 109.793
59.95000 111.416
60.12000 101.723
60.29000 112.098
60.46000 111.986
60.63000 106.787
60.80000 104.815
60.97000 107.140
61.14000 106.054
61.31000 107.975
61.48000 100.242
61.65000 106.271
61.82000 114.425
61.99000 114.358
62.16000 106.251
62.33000 98.558
62.50000 109.490
62.67000 108.654
62.84000 103.178
63.01000 112.146
63.18000 102.033
63.35000 109.618
63.52000 102.204
63.69000 105.617
63.86000 111.824
64.03000 106.444
64.20000 101.170
64.37000 107.303
64.54000 106.338
64.71000 94.102
64.88000 101.117
65.05000 107.299
65.22000 105.672
65.39000 104.003
65.56000 107.934
65.73000 113.216
65.90000 142.199
66.07000 122.153
66.24000 112.799
66.41000 118.044
66.58000 126.521
66.75000 109.607
66.92000 120.543
67.09000 120.169
67.26000 113.689
67.43000 110.770
67.60000 109.315
67.77000 122.229
67.94000 123.319
68.11000 123.267
68.28000 121.259
68.45000 132.525
68.62000 147.220
68.79000 184.605
68.96000 358.280
69.13000 2527.536
69.30000 2751.789
69.47000 1374.253
69.64000 177.473
69.81000 153.454
69.98000 139.880
70.00000 135.511