Folder: Master-Thesis/XRD/22-09-2025 Dep 2/XY Data (part 7)

File: BTO_Mapping_Theta2Theta_22-09-2025_001_54_-6-676_-29-248.xy
20.00000 598.291
20.17000 570.826
20.34000 561.190
20.51000 569.652
20.68000 540.774
20.85000 552.299
21.02000 543.298
21.19000 559.650
21.36000 559.593
21.53000 554.217
21.70000 596.336
21.87000 677.602
22.04000 825.185
22.21000 765.096
22.38000 607.726
22.55000 556.215
22.72000 544.908
22.89000 535.031
23.06000 514.604
23.23000 515.019
23.40000 496.367
23.57000 500.447
23.74000 511.722
23.91000 530.773
24.08000 511.624
24.25000 493.731
24.42000 494.007
24.59000 483.817
24.76000 477.111
24.93000 475.690
25.10000 484.414
25.27000 482.483
25.44000 465.543
25.61000 449.123
25.78000 461.265
25.95000 462.521
26.12000 462.948
26.29000 459.797
26.46000 457.468
26.63000 455.347
26.80000 457.419
26.97000 442.726
27.14000 454.857
27.31000 432.179
27.48000 437.323
27.65000 435.352
27.82000 443.279
27.99000 434.494
28.16000 443.044
28.33000 443.081
28.50000 431.337
28.67000 411.507
28.84000 433.888
29.01000 398.737
29.18000 434.051
29.35000 440.220
29.52000 430.933
29.69000 422.123
29.86000 431.725
30.03000 454.851
30.20000 450.787
30.37000 431.383
30.54000 463.851
30.71000 468.533
30.88000 530.168
31.05000 694.583
31.22000 1615.901
31.39000 3387.605
31.56000 2359.612
31.73000 956.149
31.90000 540.540
32.07000 455.557
32.24000 409.621
32.41000 415.375
32.58000 399.963
32.75000 403.239
32.92000 438.626
33.09000 407.572
33.26000 355.958
33.43000 346.498
33.60000 350.022
33.77000 356.136
33.94000 350.198
34.11000 352.375
34.28000 334.819
34.45000 342.553
34.62000 325.100
34.79000 323.783
34.96000 328.127
35.13000 320.862
35.30000 308.395
35.47000 317.673
35.64000 305.731
35.81000 295.314
35.98000 310.858
36.15000 322.980
36.32000 288.330
36.49000 309.661
36.66000 312.446
36.83000 306.900
37.00000 305.796
37.17000 299.328
37.34000 310.209
37.51000 293.461
37.68000 293.140
37.85000 290.946
38.02000 298.714
38.19000 305.110
38.36000 347.235
38.53000 525.108
38.70000 916.050
38.87000 749.207
39.04000 398.096
39.21000 307.157
39.38000 291.638
39.55000 279.969
39.72000 267.559
39.89000 279.944
40.06000 272.942
40.23000 261.823
40.40000 270.948
40.57000 257.157
40.74000 249.924
40.91000 262.993
41.08000 246.508
41.25000 241.046
41.42000 237.404
41.59000 257.061
41.76000 250.671
41.93000 252.155
42.10000 241.115
42.27000 244.269
42.44000 224.761
42.61000 236.989
42.78000 234.382
42.95000 232.617
43.12000 243.721
43.29000 236.884
43.46000 223.850
43.63000 210.934
43.80000 221.441
43.97000 231.126
44.14000 232.867
44.31000 247.730
44.48000 236.776
44.65000 257.944
44.82000 311.130
44.99000 416.007
45.16000 450.739
45.33000 357.061
45.50000 278.125
45.67000 262.712
45.84000 244.178
46.01000 222.052
46.18000 211.931
46.35000 223.746
46.52000 208.459
46.69000 193.739
46.86000 203.731
47.03000 193.817
47.20000 191.031
47.37000 186.660
47.54000 182.475
47.71000 191.443
47.88000 185.417
48.05000 187.534
48.22000 193.038
48.39000 186.091
48.56000 182.210
48.73000 188.335
48.90000 191.183
49.07000 181.751
49.24000 172.016
49.41000 163.245
49.58000 174.973
49.75000 176.683
49.92000 174.422
50.09000 182.268
50.26000 182.029
50.43000 196.871
50.60000 248.601
50.77000 269.839
50.94000 238.297
51.11000 194.425
51.28000 183.324
51.45000 180.825
51.62000 175.049
51.79000 175.068
51.96000 174.654
52.13000 160.284
52.30000 160.920
52.47000 154.310
52.64000 162.146
52.81000 173.145
52.98000 161.409
53.15000 158.174
53.32000 163.694
53.49000 158.342
53.66000 162.320
53.83000 164.516
54.00000 158.955
54.17000 160.721
54.34000 154.593
54.51000 164.805
54.68000 171.231
54.85000 146.367
55.02000 168.126
55.19000 168.443
55.36000 166.061
55.53000 217.258
55.70000 298.754
55.87000 502.130
56.04000 594.973
56.21000 397.856
56.38000 259.457
56.55000 206.158
56.72000 174.742
56.89000 166.397
57.06000 154.059
57.23000 143.705
57.40000 149.514
57.57000 147.341
57.74000 148.012
57.91000 147.652
58.08000 143.331
58.25000 141.266
58.42000 138.867
58.59000 141.319
58.76000 138.822
58.93000 140.519
59.10000 127.862
59.27000 141.825
59.44000 145.257
59.61000 130.259
59.78000 135.666
59.95000 138.569
60.12000 134.108
60.29000 140.087
60.46000 137.579
60.63000 137.009
60.80000 127.107
60.97000 131.325
61.14000 142.887
61.31000 143.077
61.48000 149.590
61.65000 331.214
61.82000 251.349
61.99000 144.449
62.16000 142.434
62.33000 141.836
62.50000 144.626
62.67000 155.226
62.84000 145.289
63.01000 159.313
63.18000 143.665
63.35000 152.094
63.52000 152.327
63.69000 157.666
63.86000 153.853
64.03000 152.408
64.20000 161.368
64.37000 167.075
64.54000 180.671
64.71000 190.836
64.88000 181.186
65.05000 210.845
65.22000 251.516
65.39000 316.088
65.56000 427.330
65.73000 791.795
65.90000 1483.031
66.07000 512.695
66.24000 359.758
66.41000 555.323
66.58000 404.327
66.75000 360.725
66.92000 380.713
67.09000 389.441
67.26000 426.435
67.43000 463.631
67.60000 493.848
67.77000 536.245
67.94000 565.575
68.11000 647.175
68.28000 729.910
68.45000 862.897
68.62000 1220.714
68.79000 2567.531
68.96000 15493.839
69.13000 84031.203
69.30000 54110.320
69.47000 15436.696
69.64000 1702.851
69.81000 1031.380
69.98000 808.649
70.00000 787.633

File: BTO_Mapping_Theta2Theta_22-09-2025_001_55_-8-901_-38-997.xy
20.00000 575.394
20.17000 570.332
20.34000 558.459
20.51000 554.228
20.68000 557.969
20.85000 555.677
21.02000 565.993
21.19000 545.959
21.36000 588.395
21.53000 567.581
21.70000 599.504
21.87000 651.265
22.04000 805.283
22.21000 784.883
22.38000 639.549
22.55000 572.391
22.72000 541.419
22.89000 527.910
23.06000 506.363
23.23000 517.809
23.40000 511.801
23.57000 508.622
23.74000 507.435
23.91000 499.593
24.08000 499.038
24.25000 476.176
24.42000 519.154
24.59000 498.222
24.76000 474.739
24.93000 478.925
25.10000 496.968
25.27000 478.052
25.44000 478.660
25.61000 472.718
25.78000 462.062
25.95000 467.874
26.12000 461.832
26.29000 458.772
26.46000 466.939
26.63000 471.622
26.80000 437.706
26.97000 445.638
27.14000 447.272
27.31000 437.273
27.48000 436.859
27.65000 444.195
27.82000 434.656
27.99000 438.379
28.16000 424.766
28.33000 441.347
28.50000 422.826
28.67000 429.017
28.84000 421.180
29.01000 431.729
29.18000 400.227
29.35000 431.315
29.52000 420.816
29.69000 410.193
29.86000 427.372
30.03000 445.428
30.20000 463.192
30.37000 447.742
30.54000 431.843
30.71000 453.120
30.88000 488.361
31.05000 635.573
31.22000 1399.766
31.39000 3303.341
31.56000 2692.898
31.73000 1082.982
31.90000 592.260
32.07000 453.743
32.24000 421.418
32.41000 398.584
32.58000 401.466
32.75000 383.501
32.92000 456.535
33.09000 409.618
33.26000 355.213
33.43000 346.034
33.60000 335.697
33.77000 339.814
33.94000 344.354
34.11000 331.813
34.28000 347.773
34.45000 314.798
34.62000 322.756
34.79000 332.921
34.96000 334.844
35.13000 335.971
35.30000 304.720
35.47000 316.525
35.64000 311.821
35.81000 316.179
35.98000 315.241
36.15000 313.688
36.32000 303.056
36.49000 297.292
36.66000 297.572
36.83000 305.978
37.00000 312.400
37.17000 305.159
37.34000 302.135
37.51000 296.649
37.68000 289.089
37.85000 288.812
38.02000 315.107
38.19000 311.126
38.36000 347.485
38.53000 483.097
38.70000 894.635
38.87000 765.425
39.04000 422.864
39.21000 296.653
39.38000 280.137
39.55000 283.953
39.72000 280.789
39.89000 270.798
40.06000 273.795
40.23000 261.929
40.40000 268.398
40.57000 264.868
40.74000 253.882
40.91000 246.156
41.08000 252.262
41.25000 240.526
41.42000 257.862
41.59000 235.513
41.76000 255.693
41.93000 254.616
42.10000 247.033
42.27000 230.751
42.44000 232.011
42.61000 231.426
42.78000 228.185
42.95000 233.975
43.12000 238.752
43.29000 222.715
43.46000 234.062
43.63000 239.661
43.80000 217.933
43.97000 235.392
44.14000 218.762
44.31000 219.793
44.48000 233.857
44.65000 252.868
44.82000 302.264
44.99000 416.878
45.16000 453.774
45.33000 373.738
45.50000 306.676
45.67000 273.164
45.84000 244.502
46.01000 230.992
46.18000 215.977
46.35000 215.495
46.52000 204.559
46.69000 198.603
46.86000 198.108
47.03000 189.461
47.20000 202.227
47.37000 192.059
47.54000 189.686
47.71000 193.234
47.88000 186.950
48.05000 187.237
48.22000 185.850
48.39000 184.539
48.56000 181.043
48.73000 186.119
48.90000 185.522
49.07000 177.795
49.24000 182.457
49.41000 185.181
49.58000 183.081
49.75000 171.345
49.92000 167.837
50.09000 182.820
50.26000 182.481
50.43000 194.716
50.60000 234.204
50.77000 268.156
50.94000 249.836
51.11000 208.121
51.28000 183.526
51.45000 180.968
51.62000 175.739
51.79000 173.806
51.96000 166.599
52.13000 169.670
52.30000 169.537
52.47000 159.594
52.64000 161.052
52.81000 149.753
52.98000 163.203
53.15000 163.293
53.32000 157.702
53.49000 152.763
53.66000 156.018
53.83000 155.672
54.00000 164.096
54.17000 152.831
54.34000 151.578
54.51000 157.753
54.68000 156.866
54.85000 150.704
55.02000 159.532
55.19000 158.288
55.36000 172.919
55.53000 206.264
55.70000 269.384
55.87000 447.006
56.04000 563.507
56.21000 437.926
56.38000 264.656
56.55000 207.080
56.72000 162.361
56.89000 158.416
57.06000 150.479
57.23000 143.546
57.40000 150.376
57.57000 153.893
57.74000 150.009
57.91000 148.581
58.08000 142.701
58.25000 141.433
58.42000 136.230
58.59000 135.172
58.76000 130.094
58.93000 133.386
59.10000 143.577
59.27000 146.921
59.44000 128.502
59.61000 126.673
59.78000 135.730
59.95000 136.690
60.12000 124.426
60.29000 134.507
60.46000 128.827
60.63000 123.474
60.80000 130.760
60.97000 137.271
61.14000 143.153
61.31000 139.148
61.48000 149.985
61.65000 336.162
61.82000 257.129
61.99000 146.971
62.16000 150.087
62.33000 146.779
62.50000 143.305
62.67000 141.678
62.84000 145.181
63.01000 139.965
63.18000 148.910
63.35000 142.475
63.52000 149.877
63.69000 160.639
63.86000 164.375
64.03000 157.244
64.20000 156.465
64.37000 177.964
64.54000 172.959
64.71000 169.351
64.88000 182.361
65.05000 194.597
65.22000 223.413
65.39000 285.756
65.56000 398.146
65.73000 761.942
65.90000 1508.595
66.07000 563.086
66.24000 370.224
66.41000 541.777
66.58000 435.949
66.75000 355.617
66.92000 368.587
67.09000 396.891
67.26000 430.687
67.43000 447.063
67.60000 484.880
67.77000 540.668
67.94000 566.025
68.11000 625.533
68.28000 724.814
68.45000 837.968
68.62000 1188.575
68.79000 2440.587
68.96000 12842.195
69.13000 83978.828
69.30000 57767.301
69.47000 18335.680
69.64000 1815.379
69.81000 1077.517
69.98000 825.923
70.00000 825.378

File: BTO_Mapping_Theta2Theta_22-09-2025_001_57_2-225_-9-749.xy
20.00000 551.787
20.17000 578.735
20.34000 577.261
20.51000 568.895
20.68000 560.353
20.85000 564.395
21.02000 560.187
21.19000 540.989
21.36000 562.748
21.53000 591.877
21.70000 580.447
21.87000 676.599
22.04000 832.198
22.21000 753.248
22.38000 617.385
22.55000 560.789
22.72000 556.790
22.89000 523.967
23.06000 519.004
23.23000 519.023
23.40000 501.986
23.57000 507.030
23.74000 500.307
23.91000 514.245
24.08000 513.878
24.25000 475.183
24.42000 492.852
24.59000 495.490
24.76000 502.349
24.93000 481.984
25.10000 492.854
25.27000 479.883
25.44000 478.438
25.61000 454.701
25.78000 466.030
25.95000 468.946
26.12000 463.333
26.29000 464.065
26.46000 448.747
26.63000 448.168
26.80000 459.351
26.97000 444.355
27.14000 453.993
27.31000 443.452
27.48000 458.614
27.65000 438.185
27.82000 453.805
27.99000 438.339
28.16000 420.669
28.33000 457.011
28.50000 433.929
28.67000 435.215
28.84000 415.628
29.01000 403.677
29.18000 417.019
29.35000 431.243
29.52000 409.297
29.69000 405.274
29.86000 442.647
30.03000 455.491
30.20000 444.780
30.37000 442.783
30.54000 451.374
30.71000 472.188
30.88000 534.791
31.05000 732.722
31.22000 1817.159
31.39000 3463.814
31.56000 2157.042
31.73000 852.253
31.90000 524.714
32.07000 444.942
32.24000 426.535
32.41000 395.832
32.58000 405.315
32.75000 381.887
32.92000 438.099
33.09000 399.187
33.26000 354.438
33.43000 352.947
33.60000 340.180
33.77000 343.174
33.94000 356.057
34.11000 330.179
34.28000 329.454
34.45000 332.262
34.62000 328.309
34.79000 322.120
34.96000 330.932
35.13000 317.498
35.30000 303.234
35.47000 307.579
35.64000 306.676
35.81000 301.767
35.98000 310.261
36.15000 306.173
36.32000 298.754
36.49000 308.435
36.66000 302.600
36.83000 298.288
37.00000 295.508
37.17000 297.353
37.34000 303.265
37.51000 287.622
37.68000 297.722
37.85000 293.573
38.02000 311.332
38.19000 333.527
38.36000 362.031
38.53000 573.017
38.70000 983.965
38.87000 732.484
39.04000 410.515
39.21000 326.087
39.38000 296.590
39.55000 270.296
39.72000 280.898
39.89000 259.174
40.06000 263.465
40.23000 263.448
40.40000 259.929
40.57000 271.089
40.74000 255.482
40.91000 257.744
41.08000 249.849
41.25000 241.423
41.42000 238.255
41.59000 238.442
41.76000 241.867
41.93000 239.651
42.10000 241.872
42.27000 256.826
42.44000 237.526
42.61000 234.425
42.78000 242.872
42.95000 227.479
43.12000 242.669
43.29000 237.577
43.46000 240.452
43.63000 235.203
43.80000 234.293
43.97000 226.673
44.14000 229.538
44.31000 233.837
44.48000 240.947
44.65000 250.282
44.82000 312.281
44.99000 397.936
45.16000 420.260
45.33000 363.402
45.50000 287.934
45.67000 252.450
45.84000 237.381
46.01000 219.482
46.18000 215.807
46.35000 205.597
46.52000 203.633
46.69000 200.708
46.86000 210.872
47.03000 195.300
47.20000 188.207
47.37000 200.386
47.54000 195.855
47.71000 197.758
47.88000 189.043
48.05000 175.979
48.22000 174.418
48.39000 191.168
48.56000 181.384
48.73000 190.485
48.90000 174.943
49.07000 166.904
49.24000 183.555
49.41000 178.096
49.58000 163.365
49.75000 165.728
49.92000 178.805
50.09000 183.481
50.26000 188.563
50.43000 199.534
50.60000 251.332
50.77000 260.766
50.94000 231.615
51.11000 202.989
51.28000 179.995
51.45000 174.366
51.62000 165.465
51.79000 160.474
51.96000 175.053
52.13000 173.132
52.30000 161.563
52.47000 153.693
52.64000 166.154
52.81000 163.032
52.98000 160.226
53.15000 159.433
53.32000 171.873
53.49000 171.316
53.66000 159.667
53.83000 149.329
54.00000 148.809
54.17000 161.215
54.34000 164.600
54.51000 165.395
54.68000 161.342
54.85000 164.584
55.02000 160.374
55.19000 173.032
55.36000 176.045
55.53000 206.797
55.70000 300.492
55.87000 496.056
56.04000 547.653
56.21000 370.614
56.38000 255.371
56.55000 199.559
56.72000 171.671
56.89000 151.562
57.06000 162.097
57.23000 149.127
57.40000 154.220
57.57000 146.855
57.74000 149.367
57.91000 144.672
58.08000 140.811
58.25000 138.714
58.42000 137.470
58.59000 132.656
58.76000 125.131
58.93000 130.915
59.10000 139.510
59.27000 128.348
59.44000 134.007
59.61000 136.387
59.78000 136.029
59.95000 121.282
60.12000 129.243
60.29000 138.966
60.46000 128.185
60.63000 141.040
60.80000 135.457
60.97000 138.554
61.14000 133.017
61.31000 136.915
61.48000 145.539
61.65000 304.026
61.82000 222.280
61.99000 138.904
62.16000 132.867
62.33000 142.094
62.50000 139.570
62.67000 145.639
62.84000 139.483
63.01000 144.966
63.18000 150.897
63.35000 151.248
63.52000 147.148
63.69000 141.060
63.86000 155.954
64.03000 156.870
64.20000 166.934
64.37000 168.457
64.54000 160.200
64.71000 179.797
64.88000 199.014
65.05000 207.674
65.22000 236.117
65.39000 310.283
65.56000 431.725
65.73000 782.876
65.90000 1368.055
66.07000 462.088
66.24000 341.022
66.41000 511.589
66.58000 388.697
66.75000 348.594
66.92000 352.976
67.09000 364.730
67.26000 413.453
67.43000 451.999
67.60000 463.867
67.77000 510.395
67.94000 567.493
68.11000 612.252
68.28000 708.506
68.45000 794.995
68.62000 1207.052
68.79000 2415.205
68.96000 16832.672
69.13000 77507.938
69.30000 46630.973
69.47000 11779.871
69.64000 1557.243
69.81000 962.783
69.98000 754.309
70.00000 752.492

File: BTO_Mapping_Theta2Theta_22-09-2025_001_58_4-450_-19-499.xy
20.00000 576.585
20.17000 560.243
20.34000 577.653
20.51000 546.202
20.68000 561.449
20.85000 580.580
21.02000 537.168
21.19000 564.011
21.36000 556.876
21.53000 560.983
21.70000 595.871
21.87000 644.048
22.04000 777.050
22.21000 746.427
22.38000 617.678
22.55000 573.680
22.72000 540.900
22.89000 504.080
23.06000 528.066
23.23000 526.409
23.40000 519.605
23.57000 510.868
23.74000 511.067
23.91000 501.227
24.08000 495.202
24.25000 487.802
24.42000 506.324
24.59000 488.577
24.76000 496.117
24.93000 495.766
25.10000 475.833
25.27000 489.911
25.44000 459.970
25.61000 470.723
25.78000 476.061
25.95000 466.184
26.12000 456.191
26.29000 442.660
26.46000 472.975
26.63000 442.893
26.80000 448.946
26.97000 436.799
27.14000 449.615
27.31000 439.113
27.48000 459.888
27.65000 426.797
27.82000 454.230
27.99000 418.298
28.16000 417.082
28.33000 448.858
28.50000 436.895
28.67000 412.845
28.84000 424.281
29.01000 409.603
29.18000 419.034
29.35000 414.017
29.52000 397.513
29.69000 422.727
29.86000 409.407
30.03000 451.620
30.20000 443.321
30.37000 438.972
30.54000 446.756
30.71000 447.632
30.88000 508.865
31.05000 694.678
31.22000 1690.726
31.39000 3398.227
31.56000 2265.961
31.73000 881.942
31.90000 536.271
32.07000 436.501
32.24000 401.808
32.41000 404.878
32.58000 390.798
32.75000 382.488
32.92000 443.270
33.09000 380.849
33.26000 362.043
33.43000 359.882
33.60000 333.418
33.77000 353.205
33.94000 324.949
34.11000 348.770
34.28000 338.861
34.45000 324.051
34.62000 326.398
34.79000 327.504
34.96000 320.983
35.13000 322.144
35.30000 325.009
35.47000 329.001
35.64000 317.571
35.81000 290.584
35.98000 310.771
36.15000 294.022
36.32000 299.090
36.49000 301.641
36.66000 310.990
36.83000 282.931
37.00000 289.629
37.17000 298.644
37.34000 291.282
37.51000 282.914
37.68000 296.142
37.85000 286.930
38.02000 287.793
38.19000 304.097
38.36000 352.143
38.53000 552.406
38.70000 970.911
38.87000 785.681
39.04000 404.105
39.21000 322.660
39.38000 292.545
39.55000 265.741
39.72000 270.423
39.89000 264.104
40.06000 274.000
40.23000 273.056
40.40000 268.590
40.57000 258.734
40.74000 260.554
40.91000 255.462
41.08000 247.955
41.25000 249.631
41.42000 252.907
41.59000 249.976
41.76000 253.360
41.93000 244.728
42.10000 238.575
42.27000 245.297
42.44000 243.505
42.61000 240.364
42.78000 240.306
42.95000 235.845
43.12000 244.918
43.29000 237.196
43.46000 229.103
43.63000 245.944
43.80000 228.772
43.97000 223.111
44.14000 223.214
44.31000 223.322
44.48000 248.194
44.65000 245.531
44.82000 300.768
44.99000 412.444
45.16000 430.045
45.33000 363.678
45.50000 295.090
45.67000 259.651
45.84000 246.417
46.01000 223.416
46.18000 206.930
46.35000 195.089
46.52000 207.818
46.69000 206.297
46.86000 207.426
47.03000 203.954
47.20000 197.835
47.37000 188.727
47.54000 196.101
47.71000 183.783
47.88000 183.778
48.05000 186.813
48.22000 194.821
48.39000 176.477
48.56000 185.848
48.73000 171.037
48.90000 183.192
49.07000 175.047
49.24000 169.657
49.41000 163.045
49.58000 191.210
49.75000 178.836
49.92000 185.236
50.09000 177.546
50.26000 174.941
50.43000 207.726
50.60000 244.922
50.77000 260.697
50.94000 224.918
51.11000 199.290
51.28000 181.510
51.45000 181.371
51.62000 165.476
51.79000 175.923
51.96000 163.476
52.13000 169.086
52.30000 170.538
52.47000 159.476
52.64000 160.048
52.81000 157.004
52.98000 160.096
53.15000 155.698
53.32000 141.935
53.49000 159.247
53.66000 153.868
53.83000 152.637
54.00000 155.294
54.17000 151.066
54.34000 158.413
54.51000 160.410
54.68000 168.105
54.85000 162.077
55.02000 160.128
55.19000 173.636
55.36000 186.821
55.53000 203.793
55.70000 280.401
55.87000 484.319
56.04000 546.004
56.21000 386.759
56.38000 243.933
56.55000 208.523
56.72000 160.987
56.89000 163.495
57.06000 147.366
57.23000 146.768
57.40000 155.036
57.57000 127.827
57.74000 153.962
57.91000 144.276
58.08000 145.190
58.25000 138.176
58.42000 137.924
58.59000 141.888
58.76000 141.057
58.93000 134.964
59.10000 133.921
59.27000 135.063
59.44000 127.187
59.61000 135.782
59.78000 134.021
59.95000 137.431
60.12000 128.813
60.29000 122.177
60.46000 121.550
60.63000 133.685
60.80000 136.572
60.97000 132.650
61.14000 141.416
61.31000 153.231
61.48000 147.807
61.65000 294.777
61.82000 217.237
61.99000 148.228
62.16000 147.445
62.33000 141.241
62.50000 149.025
62.67000 146.676
62.84000 153.395
63.01000 146.664
63.18000 137.850
63.35000 155.877
63.52000 154.489
63.69000 145.652
63.86000 152.087
64.03000 154.331
64.20000 162.951
64.37000 161.989
64.54000 165.854
64.71000 177.099
64.88000 183.128
65.05000 193.609
65.22000 236.682
65.39000 302.213
65.56000 418.132
65.73000 736.602
65.90000 1299.643
66.07000 443.113
66.24000 365.756
66.41000 498.227
66.58000 393.255
66.75000 339.513
66.92000 354.317
67.09000 374.078
67.26000 401.894
67.43000 416.125
67.60000 464.222
67.77000 485.505
67.94000 539.206
68.11000 599.885
68.28000 672.241
68.45000 781.189
68.62000 1138.943
68.79000 2258.328
68.96000 14118.967
69.13000 73264.281
69.30000 45504.797
69.47000 12240.951
69.64000 1495.953
69.81000 964.624
69.98000 749.105
70.00000 737.708

File: BTO_Mapping_Theta2Theta_22-09-2025_001_62_6-235_-7-818.xy
20.00000 587.590
20.17000 580.102
20.34000 575.828
20.51000 573.773
20.68000 570.195
20.85000 551.400
21.02000 554.731
21.19000 560.339
21.36000 544.531
21.53000 564.561
21.70000 571.240
21.87000 679.167
22.04000 788.755
22.21000 756.245
22.38000 628.092
22.55000 546.335
22.72000 542.734
22.89000 511.908
23.06000 517.367
23.23000 519.888
23.40000 507.043
23.57000 495.691
23.74000 503.833
23.91000 502.482
24.08000 517.703
24.25000 492.716
24.42000 470.928
24.59000 492.959
24.76000 485.684
24.93000 472.250
25.10000 478.328
25.27000 486.233
25.44000 464.262
25.61000 469.347
25.78000 481.124
25.95000 488.018
26.12000 467.527
26.29000 451.959
26.46000 461.068
26.63000 459.429
26.80000 445.226
26.97000 465.186
27.14000 441.051
27.31000 434.717
27.48000 431.044
27.65000 438.588
27.82000 448.878
27.99000 441.047
28.16000 420.225
28.33000 437.164
28.50000 421.416
28.67000 438.466
28.84000 415.238
29.01000 417.430
29.18000 413.194
29.35000 421.856
29.52000 420.191
29.69000 404.606
29.86000 417.613
30.03000 456.503
30.20000 460.720
30.37000 438.396
30.54000 437.967
30.71000 466.736
30.88000 522.296
31.05000 715.841
31.22000 1811.766
31.39000 3451.128
31.56000 2133.874
31.73000 867.512
31.90000 534.217
32.07000 441.810
32.24000 418.287
32.41000 409.326
32.58000 396.731
32.75000 389.572
32.92000 433.251
33.09000 384.775
33.26000 345.712
33.43000 352.689
33.60000 345.586
33.77000 341.472
33.94000 330.984
34.11000 354.487
34.28000 346.135
34.45000 334.946
34.62000 330.228
34.79000 333.608
34.96000 318.151
35.13000 302.305
35.30000 313.812
35.47000 318.083
35.64000 307.050
35.81000 298.220
35.98000 302.152
36.15000 298.831
36.32000 309.948
36.49000 297.285
36.66000 335.435
36.83000 310.162
37.00000 300.419
37.17000 307.728
37.34000 302.049
37.51000 293.101
37.68000 289.771
37.85000 299.489
38.02000 296.933
38.19000 331.217
38.36000 365.368
38.53000 549.338
38.70000 992.509
38.87000 771.076
39.04000 410.441
39.21000 314.948
39.38000 294.904
39.55000 290.018
39.72000 280.479
39.89000 272.126
40.06000 263.299
40.23000 272.839
40.40000 256.790
40.57000 254.225
40.74000 261.616
40.91000 248.987
41.08000 246.653
41.25000 248.237
41.42000 244.853
41.59000 246.479
41.76000 239.538
41.93000 239.010
42.10000 253.054
42.27000 234.276
42.44000 250.152
42.61000 226.372
42.78000 228.520
42.95000 231.720
43.12000 229.360
43.29000 234.156
43.46000 229.148
43.63000 226.645
43.80000 226.813
43.97000 230.002
44.14000 230.128
44.31000 233.154
44.48000 237.680
44.65000 244.658
44.82000 298.030
44.99000 390.762
45.16000 403.652
45.33000 363.734
45.50000 290.669
45.67000 264.034
45.84000 231.829
46.01000 220.556
46.18000 208.395
46.35000 201.875
46.52000 198.401
46.69000 204.344
46.86000 199.430
47.03000 193.643
47.20000 198.018
47.37000 194.897
47.54000 191.256
47.71000 178.059
47.88000 201.362
48.05000 194.006
48.22000 186.982
48.39000 182.354
48.56000 191.240
48.73000 184.848
48.90000 190.251
49.07000 179.622
49.24000 175.352
49.41000 177.290
49.58000 181.593
49.75000 188.906
49.92000 177.667
50.09000 169.855
50.26000 181.674
50.43000 208.475
50.60000 220.337
50.77000 262.815
50.94000 238.928
51.11000 198.505
51.28000 190.953
51.45000 168.984
51.62000 164.710
51.79000 166.533
51.96000 164.093
52.13000 161.208
52.30000 161.031
52.47000 160.141
52.64000 155.165
52.81000 159.789
52.98000 160.911
53.15000 158.934
53.32000 156.122
53.49000 172.186
53.66000 151.654
53.83000 156.488
54.00000 161.936
54.17000 155.922
54.34000 155.152
54.51000 163.747
54.68000 164.927
54.85000 158.554
55.02000 169.470
55.19000 168.231
55.36000 182.188
55.53000 197.248
55.70000 279.459
55.87000 481.716
56.04000 541.877
56.21000 374.612
56.38000 235.128
56.55000 184.782
56.72000 165.732
56.89000 160.859
57.06000 152.572
57.23000 154.422
57.40000 144.306
57.57000 147.556
57.74000 132.393
57.91000 144.361
58.08000 143.110
58.25000 138.802
58.42000 138.619
58.59000 143.968
58.76000 137.514
58.93000 137.000
59.10000 140.616
59.27000 133.057
59.44000 134.464
59.61000 139.580
59.78000 133.269
59.95000 131.634
60.12000 128.368
60.29000 135.844
60.46000 135.015
60.63000 129.136
60.80000 127.896
60.97000 136.355
61.14000 135.057
61.31000 143.809
61.48000 147.149
61.65000 304.610
61.82000 212.792
61.99000 139.926
62.16000 159.774
62.33000 139.260
62.50000 147.386
62.67000 150.043
62.84000 142.180
63.01000 154.480
63.18000 145.868
63.35000 154.266
63.52000 152.744
63.69000 146.941
63.86000 157.372
64.03000 168.336
64.20000 162.020
64.37000 170.617
64.54000 171.647
64.71000 179.237
64.88000 195.319
65.05000 191.597
65.22000 232.669
65.39000 327.829
65.56000 448.696
65.73000 785.248
65.90000 1291.815
66.07000 447.559
66.24000 348.239
66.41000 498.949
66.58000 389.715
66.75000 337.282
66.92000 359.111
67.09000 383.024
67.26000 396.940
67.43000 429.863
67.60000 462.806
67.77000 507.269
67.94000 536.354
68.11000 589.469
68.28000 670.615
68.45000 806.853
68.62000 1171.563
68.79000 2266.122
68.96000 15331.520
69.13000 72922.391
69.30000 43673.094
69.47000 10900.998
69.64000 1463.210
69.81000 929.919
69.98000 765.156
70.00000 734.231