Folder: Master-Thesis/XRD/22-09-2025 Dep 2/XY Data (part 5)

File: BTO_Mapping_Theta2Theta_22-09-2025_001_37_-10-000_0-000.xy
20.00000 577.244
20.17000 560.015
20.34000 590.356
20.51000 546.087
20.68000 589.258
20.85000 579.777
21.02000 584.854
21.19000 525.275
21.36000 567.431
21.53000 552.264
21.70000 607.481
21.87000 745.671
22.04000 868.284
22.21000 758.745
22.38000 610.521
22.55000 563.669
22.72000 526.100
22.89000 540.558
23.06000 526.623
23.23000 522.831
23.40000 506.991
23.57000 490.701
23.74000 492.430
23.91000 506.519
24.08000 499.986
24.25000 500.174
24.42000 491.238
24.59000 495.843
24.76000 491.280
24.93000 490.241
25.10000 486.717
25.27000 473.193
25.44000 460.138
25.61000 450.626
25.78000 460.114
25.95000 465.597
26.12000 463.311
26.29000 461.903
26.46000 469.251
26.63000 467.703
26.80000 459.822
26.97000 447.693
27.14000 440.959
27.31000 448.205
27.48000 432.314
27.65000 438.109
27.82000 446.029
27.99000 434.214
28.16000 442.750
28.33000 439.154
28.50000 444.801
28.67000 428.380
28.84000 431.154
29.01000 410.646
29.18000 420.221
29.35000 418.479
29.52000 392.179
29.69000 426.556
29.86000 425.890
30.03000 456.460
30.20000 445.217
30.37000 428.491
30.54000 436.682
30.71000 454.628
30.88000 535.472
31.05000 729.269
31.22000 1900.050
31.39000 3284.813
31.56000 1958.597
31.73000 802.518
31.90000 519.193
32.07000 429.320
32.24000 419.583
32.41000 415.031
32.58000 410.093
32.75000 390.490
32.92000 449.913
33.09000 390.759
33.26000 351.090
33.43000 339.977
33.60000 351.373
33.77000 349.644
33.94000 332.020
34.11000 339.781
34.28000 333.282
34.45000 325.897
34.62000 328.999
34.79000 323.493
34.96000 319.581
35.13000 328.972
35.30000 325.879
35.47000 313.151
35.64000 315.325
35.81000 315.147
35.98000 302.812
36.15000 305.237
36.32000 307.884
36.49000 307.341
36.66000 310.308
36.83000 309.207
37.00000 307.212
37.17000 308.218
37.34000 296.636
37.51000 287.948
37.68000 303.699
37.85000 286.981
38.02000 297.727
38.19000 308.204
38.36000 387.030
38.53000 625.051
38.70000 884.647
38.87000 629.420
39.04000 371.691
39.21000 302.531
39.38000 296.769
39.55000 259.700
39.72000 274.162
39.89000 264.370
40.06000 263.584
40.23000 272.919
40.40000 273.331
40.57000 259.854
40.74000 257.850
40.91000 252.898
41.08000 260.283
41.25000 245.454
41.42000 243.940
41.59000 247.203
41.76000 240.981
41.93000 234.445
42.10000 256.133
42.27000 237.037
42.44000 246.111
42.61000 239.892
42.78000 232.458
42.95000 242.584
43.12000 239.365
43.29000 236.297
43.46000 228.791
43.63000 232.531
43.80000 230.020
43.97000 234.523
44.14000 233.402
44.31000 253.135
44.48000 250.374
44.65000 299.351
44.82000 388.346
44.99000 489.897
45.16000 475.290
45.33000 344.271
45.50000 292.709
45.67000 263.595
45.84000 239.783
46.01000 222.846
46.18000 211.902
46.35000 213.731
46.52000 213.044
46.69000 201.552
46.86000 203.605
47.03000 201.623
47.20000 203.635
47.37000 196.343
47.54000 187.654
47.71000 198.479
47.88000 189.409
48.05000 181.776
48.22000 182.575
48.39000 186.619
48.56000 187.647
48.73000 186.479
48.90000 178.080
49.07000 187.721
49.24000 184.095
49.41000 182.382
49.58000 195.482
49.75000 182.092
49.92000 178.334
50.09000 183.362
50.26000 186.880
50.43000 213.985
50.60000 257.112
50.77000 277.796
50.94000 226.829
51.11000 193.407
51.28000 184.654
51.45000 180.215
51.62000 159.643
51.79000 168.066
51.96000 173.592
52.13000 159.988
52.30000 161.917
52.47000 169.334
52.64000 172.480
52.81000 170.665
52.98000 159.493
53.15000 165.064
53.32000 164.944
53.49000 158.929
53.66000 154.544
53.83000 163.475
54.00000 155.658
54.17000 155.170
54.34000 152.442
54.51000 159.782
54.68000 160.380
54.85000 170.960
55.02000 167.987
55.19000 164.106
55.36000 182.475
55.53000 222.584
55.70000 355.820
55.87000 573.208
56.04000 529.871
56.21000 362.476
56.38000 246.713
56.55000 193.025
56.72000 171.932
56.89000 158.849
57.06000 153.683
57.23000 161.961
57.40000 150.413
57.57000 143.277
57.74000 153.606
57.91000 140.956
58.08000 141.233
58.25000 139.772
58.42000 132.448
58.59000 139.358
58.76000 141.006
58.93000 147.674
59.10000 135.641
59.27000 132.887
59.44000 135.066
59.61000 130.063
59.78000 133.874
59.95000 134.257
60.12000 137.799
60.29000 144.440
60.46000 135.342
60.63000 127.651
60.80000 130.158
60.97000 135.236
61.14000 140.322
61.31000 146.363
61.48000 161.045
61.65000 369.555
61.82000 238.418
61.99000 153.878
62.16000 142.247
62.33000 144.128
62.50000 144.528
62.67000 156.706
62.84000 141.894
63.01000 154.424
63.18000 173.551
63.35000 141.523
63.52000 144.880
63.69000 144.904
63.86000 153.170
64.03000 158.244
64.20000 173.160
64.37000 170.447
64.54000 173.971
64.71000 183.621
64.88000 193.564
65.05000 207.408
65.22000 257.773
65.39000 339.996
65.56000 446.735
65.73000 915.362
65.90000 1576.238
66.07000 478.946
66.24000 396.230
66.41000 544.924
66.58000 420.460
66.75000 364.141
66.92000 374.135
67.09000 396.595
67.26000 415.149
67.43000 511.728
67.60000 533.604
67.77000 568.720
67.94000 621.669
68.11000 679.444
68.28000 752.684
68.45000 903.844
68.62000 1419.193
68.79000 2942.368
68.96000 23185.746
69.13000 94095.688
69.30000 55255.793
69.47000 12821.609
69.64000 1700.418
69.81000 1086.952
69.98000 842.421
70.00000 856.346

File: BTO_Mapping_Theta2Theta_22-09-2025_001_38_-20-000_0-000.xy
20.00000 621.090
20.17000 586.537
20.34000 571.965
20.51000 567.278
20.68000 558.258
20.85000 570.721
21.02000 546.034
21.19000 560.561
21.36000 531.315
21.53000 571.427
21.70000 602.355
21.87000 787.854
22.04000 919.277
22.21000 742.404
22.38000 602.341
22.55000 551.880
22.72000 538.316
22.89000 521.144
23.06000 518.764
23.23000 522.964
23.40000 508.702
23.57000 502.492
23.74000 522.207
23.91000 499.432
24.08000 479.965
24.25000 504.016
24.42000 499.320
24.59000 482.693
24.76000 495.337
24.93000 500.008
25.10000 465.922
25.27000 503.631
25.44000 497.497
25.61000 456.949
25.78000 493.873
25.95000 455.711
26.12000 456.020
26.29000 470.688
26.46000 469.722
26.63000 447.849
26.80000 465.505
26.97000 450.220
27.14000 459.144
27.31000 430.474
27.48000 445.482
27.65000 440.532
27.82000 438.119
27.99000 422.496
28.16000 443.460
28.33000 425.337
28.50000 435.536
28.67000 432.125
28.84000 421.991
29.01000 422.352
29.18000 395.545
29.35000 418.657
29.52000 419.589
29.69000 421.151
29.86000 421.706
30.03000 455.350
30.20000 436.874
30.37000 432.500
30.54000 435.864
30.71000 446.008
30.88000 498.399
31.05000 729.585
31.22000 2135.539
31.39000 3518.043
31.56000 1867.068
31.73000 759.653
31.90000 494.176
32.07000 420.539
32.24000 432.095
32.41000 401.334
32.58000 385.990
32.75000 382.967
32.92000 439.352
33.09000 405.939
33.26000 350.866
33.43000 365.518
33.60000 337.982
33.77000 369.222
33.94000 356.718
34.11000 322.481
34.28000 350.480
34.45000 346.051
34.62000 339.260
34.79000 321.608
34.96000 315.996
35.13000 311.012
35.30000 340.478
35.47000 313.841
35.64000 314.893
35.81000 305.460
35.98000 315.506
36.15000 335.185
36.32000 300.105
36.49000 308.457
36.66000 297.582
36.83000 311.172
37.00000 317.189
37.17000 312.994
37.34000 309.624
37.51000 311.607
37.68000 306.956
37.85000 307.753
38.02000 309.790
38.19000 322.613
38.36000 395.671
38.53000 628.365
38.70000 779.964
38.87000 530.200
39.04000 357.891
39.21000 301.804
39.38000 299.581
39.55000 286.577
39.72000 276.079
39.89000 265.167
40.06000 290.488
40.23000 263.873
40.40000 265.306
40.57000 268.218
40.74000 249.841
40.91000 262.499
41.08000 248.059
41.25000 257.903
41.42000 264.762
41.59000 255.032
41.76000 251.604
41.93000 249.287
42.10000 243.510
42.27000 235.600
42.44000 245.027
42.61000 234.035
42.78000 229.900
42.95000 230.281
43.12000 231.854
43.29000 233.202
43.46000 233.224
43.63000 233.329
43.80000 223.555
43.97000 242.477
44.14000 232.423
44.31000 244.855
44.48000 257.732
44.65000 314.165
44.82000 439.377
44.99000 564.174
45.16000 458.080
45.33000 345.039
45.50000 265.680
45.67000 257.204
45.84000 235.685
46.01000 230.148
46.18000 214.647
46.35000 210.148
46.52000 197.847
46.69000 202.567
46.86000 203.331
47.03000 204.157
47.20000 190.507
47.37000 193.654
47.54000 199.414
47.71000 188.793
47.88000 197.806
48.05000 196.711
48.22000 180.994
48.39000 198.257
48.56000 184.426
48.73000 188.850
48.90000 180.614
49.07000 182.854
49.24000 183.201
49.41000 176.711
49.58000 199.012
49.75000 183.316
49.92000 166.369
50.09000 183.228
50.26000 195.340
50.43000 247.200
50.60000 255.842
50.77000 268.249
50.94000 227.612
51.11000 195.739
51.28000 175.862
51.45000 180.112
51.62000 170.989
51.79000 172.217
51.96000 170.331
52.13000 149.363
52.30000 166.954
52.47000 172.495
52.64000 164.081
52.81000 158.637
52.98000 161.398
53.15000 161.345
53.32000 164.324
53.49000 179.006
53.66000 157.135
53.83000 158.190
54.00000 162.963
54.17000 157.591
54.34000 158.507
54.51000 164.580
54.68000 160.023
54.85000 154.093
55.02000 171.961
55.19000 185.442
55.36000 200.963
55.53000 260.814
55.70000 412.373
55.87000 545.988
56.04000 453.891
56.21000 310.561
56.38000 218.366
56.55000 190.701
56.72000 162.729
56.89000 146.081
57.06000 147.643
57.23000 152.972
57.40000 146.017
57.57000 149.765
57.74000 139.729
57.91000 142.690
58.08000 146.426
58.25000 140.116
58.42000 135.277
58.59000 139.553
58.76000 135.038
58.93000 149.856
59.10000 150.064
59.27000 144.510
59.44000 132.817
59.61000 130.498
59.78000 135.849
59.95000 133.463
60.12000 136.875
60.29000 134.658
60.46000 129.945
60.63000 137.531
60.80000 140.971
60.97000 126.339
61.14000 143.724
61.31000 145.029
61.48000 153.900
61.65000 363.481
61.82000 242.306
61.99000 146.918
62.16000 139.886
62.33000 146.980
62.50000 141.003
62.67000 144.571
62.84000 150.186
63.01000 147.983
63.18000 154.067
63.35000 145.616
63.52000 158.228
63.69000 155.356
63.86000 158.089
64.03000 162.742
64.20000 166.059
64.37000 181.130
64.54000 171.671
64.71000 189.184
64.88000 192.316
65.05000 196.677
65.22000 273.037
65.39000 374.776
65.56000 447.723
65.73000 892.871
65.90000 1579.791
66.07000 476.421
66.24000 387.389
66.41000 568.162
66.58000 406.661
66.75000 369.381
66.92000 373.700
67.09000 420.219
67.26000 436.328
67.43000 461.435
67.60000 498.538
67.77000 544.172
67.94000 600.297
68.11000 660.952
68.28000 763.329
68.45000 877.411
68.62000 1395.981
68.79000 2832.778
68.96000 22364.355
69.13000 93559.047
69.30000 55196.242
69.47000 13125.205
69.64000 1680.342
69.81000 1098.493
69.98000 876.345
70.00000 835.917

File: BTO_Mapping_Theta2Theta_22-09-2025_001_41_-50-000_0-000.xy
20.00000 580.476
20.17000 573.982
20.34000 544.054
20.51000 569.035
20.68000 578.325
20.85000 572.074
21.02000 554.384
21.19000 567.690
21.36000 544.797
21.53000 546.802
21.70000 550.356
21.87000 578.195
22.04000 557.027
22.21000 556.131
22.38000 540.243
22.55000 561.549
22.72000 522.350
22.89000 533.839
23.06000 535.377
23.23000 545.821
23.40000 534.570
23.57000 558.824
23.74000 536.839
23.91000 550.386
24.08000 519.279
24.25000 533.301
24.42000 524.467
24.59000 529.443
24.76000 536.463
24.93000 546.334
25.10000 528.060
25.27000 537.828
25.44000 516.413
25.61000 519.659
25.78000 525.979
25.95000 532.166
26.12000 521.533
26.29000 539.604
26.46000 527.341
26.63000 518.262
26.80000 556.307
26.97000 534.635
27.14000 538.581
27.31000 559.886
27.48000 544.821
27.65000 571.720
27.82000 551.966
27.99000 570.308
28.16000 548.257
28.33000 557.345
28.50000 578.461
28.67000 564.265
28.84000 577.362
29.01000 609.462
29.18000 600.588
29.35000 587.355
29.52000 601.901
29.69000 592.866
29.86000 600.732
30.03000 615.230
30.20000 621.724
30.37000 628.539
30.54000 632.546
30.71000 638.930
30.88000 665.280
31.05000 662.175
31.22000 679.717
31.39000 683.435
31.56000 697.307
31.73000 694.183
31.90000 711.772
32.07000 724.056
32.24000 730.710
32.41000 727.915
32.58000 767.662
32.75000 760.994
32.92000 759.157
33.09000 801.478
33.26000 786.876
33.43000 795.161
33.60000 818.895
33.77000 851.946
33.94000 878.044
34.11000 875.177
34.28000 869.253
34.45000 883.373
34.62000 904.557
34.79000 930.490
34.96000 912.046
35.13000 966.857
35.30000 975.931
35.47000 970.462
35.64000 998.730
35.81000 1033.710
35.98000 1050.799
36.15000 1061.949
36.32000 1070.784
36.49000 1081.924
36.66000 1079.334
36.83000 1137.121
37.00000 1150.757
37.17000 1175.298
37.34000 1171.234
37.51000 1236.350
37.68000 1230.347
37.85000 1247.937
38.02000 1236.924
38.19000 1282.481
38.36000 1324.110
38.53000 1329.185
38.70000 1345.125
38.87000 1418.827
39.04000 1400.162
39.21000 1422.881
39.38000 1466.921
39.55000 1441.816
39.72000 1465.287
39.89000 1554.474
40.06000 1511.997
40.23000 1575.768
40.40000 1578.247
40.57000 1572.378
40.74000 1620.691
40.91000 1661.693
41.08000 1663.885
41.25000 1688.949
41.42000 1722.142
41.59000 1750.568
41.76000 1757.840
41.93000 1757.931
42.10000 1809.268
42.27000 1842.485
42.44000 1858.093
42.61000 1882.573
42.78000 1910.002
42.95000 1946.673
43.12000 1928.935
43.29000 1972.484
43.46000 2025.857
43.63000 2120.596
43.80000 2422.094
43.97000 3224.351
44.14000 5589.936
44.31000 6781.106
44.48000 4362.926
44.65000 2790.953
44.82000 2294.580
44.99000 2136.472
45.16000 2147.076
45.33000 2103.213
45.50000 2061.755
45.67000 2112.492
45.84000 2096.605
46.01000 2144.959
46.18000 2157.706
46.35000 2125.654
46.52000 2193.993
46.69000 2182.574
46.86000 2205.276
47.03000 2224.572
47.20000 2221.863
47.37000 2219.619
47.54000 2187.460
47.71000 2188.328
47.88000 2222.090
48.05000 2225.224
48.22000 2241.106
48.39000 2273.025
48.56000 2233.393
48.73000 2254.232
48.90000 2273.570
49.07000 2263.755
49.24000 2323.787
49.41000 2276.941
49.58000 2318.302
49.75000 2338.263
49.92000 2279.358
50.09000 2294.628
50.26000 2315.261
50.43000 2362.820
50.60000 2338.165
50.77000 2331.694
50.94000 2311.756
51.11000 2353.150
51.28000 2335.197
51.45000 2331.044
51.62000 2312.542
51.79000 2335.688
51.96000 2384.391
52.13000 2318.359
52.30000 2384.041
52.47000 2391.675
52.64000 2342.453
52.81000 2368.547
52.98000 2406.609
53.15000 2376.940
53.32000 2418.426
53.49000 2357.541
53.66000 2356.357
53.83000 2423.650
54.00000 2392.547
54.17000 2375.486
54.34000 2401.536
54.51000 2406.575
54.68000 2358.211
54.85000 2434.849
55.02000 2372.504
55.19000 2391.660
55.36000 2412.198
55.53000 2394.677
55.70000 2403.705
55.87000 2374.871
56.04000 2444.076
56.21000 2414.677
56.38000 2402.181
56.55000 2396.872
56.72000 2409.666
56.89000 2386.560
57.06000 2410.672
57.23000 2413.596
57.40000 2395.717
57.57000 2441.898
57.74000 2399.903
57.91000 2400.257
58.08000 2435.203
58.25000 2417.912
58.42000 2371.571
58.59000 2401.008
58.76000 2397.211
58.93000 2381.021
59.10000 2406.502
59.27000 2376.784
59.44000 2422.558
59.61000 2421.295
59.78000 2420.077
59.95000 2373.570
60.12000 2434.564
60.29000 2393.805
60.46000 2415.230
60.63000 2440.046
60.80000 2405.871
60.97000 2395.524
61.14000 2421.144
61.31000 2399.609
61.48000 2443.694
61.65000 2412.604
61.82000 2408.258
61.99000 2401.611
62.16000 2442.575
62.33000 2433.537
62.50000 2398.169
62.67000 2440.944
62.84000 2394.202
63.01000 2430.200
63.18000 2451.296
63.35000 2421.441
63.52000 2406.402
63.69000 2438.758
63.86000 2421.777
64.03000 2433.166
64.20000 2504.125
64.37000 2663.948
64.54000 2854.656
64.71000 2790.861
64.88000 2626.898
65.05000 2523.067
65.22000 2463.484
65.39000 2444.853
65.56000 2427.043
65.73000 2376.692
65.90000 2412.330
66.07000 2390.491
66.24000 2382.342
66.41000 2417.237
66.58000 2395.149
66.75000 2396.580
66.92000 2397.958
67.09000 2394.780
67.26000 2439.093
67.43000 2367.442
67.60000 2414.670
67.77000 2411.776
67.94000 2399.443
68.11000 2404.175
68.28000 2368.447
68.45000 2424.569
68.62000 2379.543
68.79000 2363.367
68.96000 2380.828
69.13000 2365.153
69.30000 2381.181
69.47000 2424.231
69.64000 2370.821
69.81000 2364.982
69.98000 2337.080
70.00000 2366.847

File: BTO_Mapping_Theta2Theta_22-09-2025_001_43_-18-019_-8-678.xy
20.00000 592.927
20.17000 559.064
20.34000 564.893
20.51000 548.353
20.68000 564.566
20.85000 562.586
21.02000 579.419
21.19000 566.089
21.36000 555.063
21.53000 573.029
21.70000 610.081
21.87000 757.414
22.04000 891.786
22.21000 752.341
22.38000 627.244
22.55000 561.291
22.72000 529.696
22.89000 523.410
23.06000 509.094
23.23000 527.779
23.40000 509.479
23.57000 498.203
23.74000 497.973
23.91000 509.602
24.08000 513.078
24.25000 508.024
24.42000 485.266
24.59000 481.056
24.76000 494.272
24.93000 478.074
25.10000 480.466
25.27000 472.560
25.44000 487.040
25.61000 445.198
25.78000 467.225
25.95000 472.395
26.12000 461.417
26.29000 463.842
26.46000 452.116
26.63000 463.525
26.80000 453.534
26.97000 453.684
27.14000 467.789
27.31000 437.687
27.48000 453.159
27.65000 419.464
27.82000 439.118
27.99000 422.062
28.16000 432.886
28.33000 449.559
28.50000 416.664
28.67000 430.528
28.84000 427.893
29.01000 424.533
29.18000 403.152
29.35000 417.407
29.52000 399.838
29.69000 419.565
29.86000 432.331
30.03000 445.114
30.20000 432.389
30.37000 436.965
30.54000 439.671
30.71000 438.612
30.88000 489.355
31.05000 718.269
31.22000 2009.243
31.39000 3552.782
31.56000 2004.696
31.73000 785.763
31.90000 509.535
32.07000 431.149
32.24000 414.812
32.41000 402.475
32.58000 398.723
32.75000 410.556
32.92000 470.823
33.09000 403.514
33.26000 364.533
33.43000 362.060
33.60000 347.116
33.77000 336.431
33.94000 329.345
34.11000 324.012
34.28000 337.408
34.45000 330.685
34.62000 318.285
34.79000 333.552
34.96000 324.616
35.13000 321.804
35.30000 319.323
35.47000 317.598
35.64000 313.258
35.81000 317.161
35.98000 296.684
36.15000 315.183
36.32000 319.111
36.49000 302.799
36.66000 310.099
36.83000 299.726
37.00000 315.786
37.17000 299.857
37.34000 309.439
37.51000 286.162
37.68000 312.223
37.85000 287.051
38.02000 286.943
38.19000 308.349
38.36000 396.392
38.53000 601.482
38.70000 802.168
38.87000 584.738
39.04000 389.937
39.21000 300.801
39.38000 280.968
39.55000 279.618
39.72000 277.134
39.89000 274.784
40.06000 260.914
40.23000 258.112
40.40000 271.560
40.57000 250.371
40.74000 252.876
40.91000 249.118
41.08000 239.586
41.25000 255.110
41.42000 260.440
41.59000 250.035
41.76000 241.795
41.93000 246.444
42.10000 235.781
42.27000 239.759
42.44000 244.262
42.61000 247.848
42.78000 236.122
42.95000 239.632
43.12000 240.168
43.29000 233.777
43.46000 213.559
43.63000 231.126
43.80000 232.172
43.97000 223.256
44.14000 232.493
44.31000 245.825
44.48000 248.792
44.65000 297.037
44.82000 422.691
44.99000 516.401
45.16000 477.048
45.33000 356.278
45.50000 277.430
45.67000 250.780
45.84000 238.598
46.01000 235.452
46.18000 211.862
46.35000 207.713
46.52000 204.091
46.69000 214.962
46.86000 203.599
47.03000 200.451
47.20000 192.938
47.37000 200.992
47.54000 196.494
47.71000 190.602
47.88000 191.919
48.05000 191.834
48.22000 188.674
48.39000 176.723
48.56000 177.369
48.73000 183.045
48.90000 181.177
49.07000 171.089
49.24000 176.745
49.41000 189.223
49.58000 180.339
49.75000 177.421
49.92000 185.928
50.09000 186.881
50.26000 199.711
50.43000 213.659
50.60000 277.215
50.77000 277.227
50.94000 233.153
51.11000 202.699
51.28000 190.975
51.45000 176.763
51.62000 167.206
51.79000 163.694
51.96000 166.776
52.13000 167.655
52.30000 164.542
52.47000 170.333
52.64000 158.732
52.81000 166.539
52.98000 167.542
53.15000 171.319
53.32000 157.743
53.49000 157.561
53.66000 155.618
53.83000 163.615
54.00000 169.258
54.17000 148.891
54.34000 154.689
54.51000 155.271
54.68000 160.384
54.85000 164.537
55.02000 166.654
55.19000 180.697
55.36000 186.307
55.53000 242.697
55.70000 395.946
55.87000 559.816
56.04000 520.813
56.21000 340.601
56.38000 233.992
56.55000 181.252
56.72000 163.007
56.89000 158.294
57.06000 149.780
57.23000 141.001
57.40000 140.496
57.57000 144.767
57.74000 146.643
57.91000 142.341
58.08000 143.905
58.25000 150.762
58.42000 146.387
58.59000 144.287
58.76000 144.087
58.93000 138.700
59.10000 136.836
59.27000 133.735
59.44000 146.274
59.61000 131.028
59.78000 138.790
59.95000 135.853
60.12000 131.951
60.29000 140.078
60.46000 133.932
60.63000 128.707
60.80000 133.092
60.97000 133.508
61.14000 148.740
61.31000 144.797
61.48000 156.757
61.65000 362.194
61.82000 244.555
61.99000 137.050
62.16000 147.501
62.33000 149.917
62.50000 145.084
62.67000 144.527
62.84000 145.637
63.01000 165.356
63.18000 147.874
63.35000 148.069
63.52000 150.386
63.69000 146.240
63.86000 162.894
64.03000 167.012
64.20000 166.362
64.37000 167.485
64.54000 181.519
64.71000 174.852
64.88000 193.547
65.05000 209.435
65.22000 268.562
65.39000 357.165
65.56000 431.445
65.73000 885.423
65.90000 1621.686
66.07000 493.975
66.24000 385.963
66.41000 555.511
66.58000 422.382
66.75000 358.627
66.92000 378.688
67.09000 409.008
67.26000 462.306
67.43000 467.985
67.60000 524.689
67.77000 561.734
67.94000 593.219
68.11000 682.237
68.28000 759.192
68.45000 908.012
68.62000 1353.038
68.79000 2812.711
68.96000 21070.719
69.13000 94457.758
69.30000 56441.285
69.47000 13944.548
69.64000 1738.587
69.81000 1093.736
69.98000 824.012
70.00000 818.218

File: BTO_Mapping_Theta2Theta_22-09-2025_001_46_-45-048_-21-694.xy
20.00000 585.761
20.17000 577.711
20.34000 557.303
20.51000 543.317
20.68000 538.984
20.85000 528.942
21.02000 552.081
21.19000 527.182
21.36000 529.094
21.53000 526.707
21.70000 516.094
21.87000 517.942
22.04000 537.786
22.21000 513.804
22.38000 520.119
22.55000 509.452
22.72000 502.942
22.89000 489.988
23.06000 506.324
23.23000 501.335
23.40000 503.593
23.57000 492.058
23.74000 488.578
23.91000 474.391
24.08000 473.404
24.25000 479.376
24.42000 465.590
24.59000 465.094
24.76000 477.937
24.93000 471.324
25.10000 465.080
25.27000 456.228
25.44000 485.174
25.61000 453.410
25.78000 459.947
25.95000 449.762
26.12000 435.509
26.29000 438.116
26.46000 443.832
26.63000 446.663
26.80000 422.597
26.97000 447.101
27.14000 428.037
27.31000 436.833
27.48000 429.686
27.65000 429.147
27.82000 409.779
27.99000 405.535
28.16000 401.042
28.33000 399.141
28.50000 400.588
28.67000 419.915
28.84000 395.297
29.01000 411.433
29.18000 388.586
29.35000 386.413
29.52000 361.055
29.69000 368.958
29.86000 368.727
30.03000 380.096
30.20000 380.267
30.37000 380.832
30.54000 372.699
30.71000 359.070
30.88000 360.596
31.05000 358.257
31.22000 349.394
31.39000 359.816
31.56000 343.424
31.73000 353.135
31.90000 343.184
32.07000 336.325
32.24000 346.029
32.41000 351.619
32.58000 346.573
32.75000 332.925
32.92000 327.264
33.09000 332.625
33.26000 324.627
33.43000 323.852
33.60000 318.338
33.77000 324.884
33.94000 319.189
34.11000 314.899
34.28000 306.098
34.45000 311.871
34.62000 301.938
34.79000 307.340
34.96000 302.348
35.13000 305.811
35.30000 292.713
35.47000 313.249
35.64000 309.590
35.81000 289.653
35.98000 290.294
36.15000 281.117
36.32000 284.646
36.49000 278.399
36.66000 287.006
36.83000 276.898
37.00000 292.020
37.17000 276.122
37.34000 277.893
37.51000 279.873
37.68000 266.347
37.85000 272.214
38.02000 275.287
38.19000 257.557
38.36000 257.948
38.53000 268.114
38.70000 252.611
38.87000 253.033
39.04000 256.665
39.21000 233.865
39.38000 251.019
39.55000 228.838
39.72000 241.863
39.89000 252.843
40.06000 239.825
40.23000 239.677
40.40000 229.943
40.57000 227.386
40.74000 230.211
40.91000 230.484
41.08000 211.544
41.25000 208.190
41.42000 221.415
41.59000 227.002
41.76000 226.642
41.93000 215.411
42.10000 218.391
42.27000 230.120
42.44000 210.770
42.61000 215.248
42.78000 215.567
42.95000 212.783
43.12000 213.066
43.29000 210.586
43.46000 210.609
43.63000 204.861
43.80000 200.703
43.97000 202.878
44.14000 195.946
44.31000 199.955
44.48000 192.110
44.65000 208.996
44.82000 204.034
44.99000 183.122
45.16000 194.287
45.33000 203.566
45.50000 184.686
45.67000 174.984
45.84000 180.526
46.01000 192.004
46.18000 182.999
46.35000 186.975
46.52000 176.187
46.69000 170.669
46.86000 182.153
47.03000 167.343
47.20000 177.544
47.37000 171.882
47.54000 174.343
47.71000 189.583
47.88000 162.863
48.05000 173.039
48.22000 175.239
48.39000 162.936
48.56000 166.366
48.73000 172.147
48.90000 168.774
49.07000 173.264
49.24000 152.425
49.41000 154.921
49.58000 164.057
49.75000 159.968
49.92000 149.652
50.09000 154.768
50.26000 157.905
50.43000 158.119
50.60000 156.791
50.77000 141.737
50.94000 151.567
51.11000 148.517
51.28000 154.190
51.45000 147.233
51.62000 145.878
51.79000 156.454
51.96000 145.796
52.13000 138.623
52.30000 133.969
52.47000 143.648
52.64000 143.956
52.81000 141.450
52.98000 137.141
53.15000 140.020
53.32000 137.885
53.49000 147.811
53.66000 132.126
53.83000 143.197
54.00000 127.664
54.17000 132.305
54.34000 133.135
54.51000 128.062
54.68000 138.169
54.85000 132.916
55.02000 135.058
55.19000 134.036
55.36000 128.838
55.53000 125.354
55.70000 133.075
55.87000 122.824
56.04000 120.609
56.21000 124.290
56.38000 123.536
56.55000 124.307
56.72000 114.857
56.89000 120.274
57.06000 119.273
57.23000 113.430
57.40000 115.290
57.57000 114.937
57.74000 113.275
57.91000 112.949
58.08000 114.054
58.25000 115.017
58.42000 110.395
58.59000 116.545
58.76000 113.260
58.93000 116.185
59.10000 108.250
59.27000 115.602
59.44000 108.103
59.61000 110.434
59.78000 112.032
59.95000 114.863
60.12000 108.828
60.29000 109.852
60.46000 112.064
60.63000 108.878
60.80000 110.682
60.97000 114.922
61.14000 115.174
61.31000 111.566
61.48000 109.722
61.65000 123.957
61.82000 130.134
61.99000 105.908
62.16000 112.338
62.33000 105.703
62.50000 103.634
62.67000 106.222
62.84000 106.026
63.01000 90.704
63.18000 102.299
63.35000 113.589
63.52000 106.312
63.69000 109.668
63.86000 105.389
64.03000 109.065
64.20000 108.796
64.37000 108.701
64.54000 111.592
64.71000 104.854
64.88000 111.319
65.05000 119.173
65.22000 109.871
65.39000 107.326
65.56000 123.310
65.73000 133.269
65.90000 251.048
66.07000 181.488
66.24000 133.469
66.41000 143.869
66.58000 159.221
66.75000 128.635
66.92000 138.396
67.09000 136.396
67.26000 146.721
67.43000 149.546
67.60000 144.978
67.77000 158.129
67.94000 160.484
68.11000 170.767
68.28000 188.428
68.45000 194.927
68.62000 255.309
68.79000 405.617
68.96000 824.095
69.13000 8871.647
69.30000 9308.858
69.47000 4476.432
69.64000 381.633
69.81000 259.450
69.98000 211.212
70.00000 218.921