Folder: Master-Thesis/XRD/22-09-2025 Dep 2/XY Data (part 2)

File: BTO_Mapping_Theta2Theta_22-09-2025_001_13_12-470_15-637.xy
20.00000 560.776
20.17000 560.047
20.34000 553.806
20.51000 559.708
20.68000 559.751
20.85000 571.852
21.02000 571.204
21.19000 569.515
21.36000 547.358
21.53000 549.645
21.70000 586.655
21.87000 641.984
22.04000 758.716
22.21000 722.695
22.38000 608.248
22.55000 536.874
22.72000 547.590
22.89000 510.609
23.06000 527.833
23.23000 500.905
23.40000 511.972
23.57000 520.065
23.74000 517.408
23.91000 514.053
24.08000 512.437
24.25000 490.918
24.42000 490.814
24.59000 486.161
24.76000 482.602
24.93000 473.425
25.10000 475.908
25.27000 464.619
25.44000 437.249
25.61000 464.317
25.78000 460.291
25.95000 464.342
26.12000 463.859
26.29000 455.998
26.46000 453.076
26.63000 430.647
26.80000 464.685
26.97000 420.905
27.14000 450.216
27.31000 426.531
27.48000 447.973
27.65000 436.432
27.82000 422.810
27.99000 421.750
28.16000 429.548
28.33000 428.375
28.50000 428.511
28.67000 409.553
28.84000 417.190
29.01000 415.350
29.18000 418.921
29.35000 425.920
29.52000 410.635
29.69000 406.230
29.86000 434.266
30.03000 430.652
30.20000 448.759
30.37000 425.967
30.54000 436.391
30.71000 469.987
30.88000 491.768
31.05000 674.122
31.22000 1658.071
31.39000 3250.801
31.56000 2029.415
31.73000 833.603
31.90000 509.238
32.07000 437.596
32.24000 399.528
32.41000 404.115
32.58000 390.688
32.75000 382.400
32.92000 396.774
33.09000 363.481
33.26000 340.543
33.43000 356.732
33.60000 347.896
33.77000 351.834
33.94000 348.737
34.11000 338.695
34.28000 340.326
34.45000 341.377
34.62000 321.784
34.79000 337.517
34.96000 305.475
35.13000 316.921
35.30000 299.900
35.47000 322.489
35.64000 322.941
35.81000 299.832
35.98000 285.088
36.15000 299.837
36.32000 307.493
36.49000 301.849
36.66000 297.833
36.83000 299.799
37.00000 310.670
37.17000 305.357
37.34000 288.173
37.51000 288.803
37.68000 278.047
37.85000 305.486
38.02000 301.877
38.19000 323.116
38.36000 358.888
38.53000 547.854
38.70000 984.636
38.87000 803.248
39.04000 407.220
39.21000 306.036
39.38000 283.632
39.55000 274.070
39.72000 253.665
39.89000 270.429
40.06000 274.154
40.23000 267.756
40.40000 250.725
40.57000 263.203
40.74000 255.513
40.91000 258.259
41.08000 256.567
41.25000 246.628
41.42000 248.100
41.59000 238.796
41.76000 245.824
41.93000 236.596
42.10000 245.848
42.27000 254.406
42.44000 241.823
42.61000 228.689
42.78000 233.790
42.95000 229.404
43.12000 232.132
43.29000 225.571
43.46000 217.453
43.63000 228.430
43.80000 239.937
43.97000 218.539
44.14000 218.333
44.31000 234.513
44.48000 229.231
44.65000 244.862
44.82000 280.202
44.99000 356.646
45.16000 416.496
45.33000 345.296
45.50000 298.174
45.67000 251.175
45.84000 250.963
46.01000 225.332
46.18000 205.100
46.35000 196.253
46.52000 203.079
46.69000 202.414
46.86000 203.026
47.03000 207.612
47.20000 184.919
47.37000 189.273
47.54000 182.984
47.71000 199.222
47.88000 179.317
48.05000 175.619
48.22000 184.361
48.39000 193.972
48.56000 177.928
48.73000 182.662
48.90000 180.207
49.07000 181.053
49.24000 177.214
49.41000 184.123
49.58000 180.263
49.75000 174.368
49.92000 182.653
50.09000 169.664
50.26000 174.545
50.43000 190.864
50.60000 244.104
50.77000 266.169
50.94000 234.282
51.11000 200.122
51.28000 184.425
51.45000 180.414
51.62000 166.812
51.79000 161.679
51.96000 166.802
52.13000 151.831
52.30000 157.777
52.47000 158.975
52.64000 151.076
52.81000 151.719
52.98000 155.754
53.15000 155.576
53.32000 167.462
53.49000 169.380
53.66000 157.207
53.83000 159.231
54.00000 157.932
54.17000 159.022
54.34000 157.949
54.51000 163.666
54.68000 152.127
54.85000 155.288
55.02000 152.008
55.19000 161.605
55.36000 164.436
55.53000 203.905
55.70000 264.757
55.87000 445.467
56.04000 514.086
56.21000 369.658
56.38000 246.139
56.55000 194.059
56.72000 169.892
56.89000 158.228
57.06000 154.955
57.23000 146.846
57.40000 134.438
57.57000 134.212
57.74000 149.651
57.91000 152.242
58.08000 143.263
58.25000 140.427
58.42000 130.784
58.59000 142.663
58.76000 123.369
58.93000 131.577
59.10000 125.503
59.27000 145.370
59.44000 131.679
59.61000 133.744
59.78000 133.776
59.95000 138.026
60.12000 133.522
60.29000 127.694
60.46000 137.652
60.63000 128.827
60.80000 129.264
60.97000 136.894
61.14000 141.094
61.31000 132.173
61.48000 148.088
61.65000 298.216
61.82000 190.751
61.99000 145.373
62.16000 140.605
62.33000 143.344
62.50000 139.445
62.67000 146.714
62.84000 149.957
63.01000 142.368
63.18000 143.266
63.35000 146.797
63.52000 155.409
63.69000 162.457
63.86000 160.503
64.03000 156.694
64.20000 160.036
64.37000 174.467
64.54000 163.413
64.71000 187.636
64.88000 190.108
65.05000 202.556
65.22000 223.026
65.39000 320.949
65.56000 409.938
65.73000 733.352
65.90000 1203.890
66.07000 419.489
66.24000 339.860
66.41000 475.115
66.58000 355.913
66.75000 327.722
66.92000 347.199
67.09000 362.098
67.26000 389.377
67.43000 421.746
67.60000 451.286
67.77000 499.993
67.94000 515.772
68.11000 579.553
68.28000 643.769
68.45000 775.839
68.62000 1142.458
68.79000 2155.146
68.96000 15202.866
69.13000 66068.047
69.30000 38439.656
69.47000 8999.631
69.64000 1365.627
69.81000 888.452
69.98000 728.454
70.00000 712.891

File: BTO_Mapping_Theta2Theta_22-09-2025_001_14_18-705_23-455.xy
20.00000 567.019
20.17000 575.715
20.34000 557.983
20.51000 549.764
20.68000 563.240
20.85000 547.859
21.02000 555.677
21.19000 564.798
21.36000 542.631
21.53000 530.433
21.70000 578.042
21.87000 626.433
22.04000 722.889
22.21000 688.375
22.38000 612.051
22.55000 565.484
22.72000 526.252
22.89000 508.432
23.06000 530.645
23.23000 515.214
23.40000 499.484
23.57000 519.272
23.74000 513.327
23.91000 530.672
24.08000 514.362
24.25000 519.789
24.42000 490.046
24.59000 476.143
24.76000 486.436
24.93000 483.897
25.10000 474.212
25.27000 474.902
25.44000 488.575
25.61000 459.716
25.78000 439.966
25.95000 482.677
26.12000 461.706
26.29000 449.807
26.46000 449.157
26.63000 436.729
26.80000 447.896
26.97000 446.217
27.14000 433.426
27.31000 431.267
27.48000 444.235
27.65000 431.722
27.82000 423.433
27.99000 422.507
28.16000 431.096
28.33000 421.557
28.50000 437.311
28.67000 426.531
28.84000 417.000
29.01000 416.209
29.18000 411.909
29.35000 409.157
29.52000 410.135
29.69000 414.291
29.86000 415.493
30.03000 432.086
30.20000 427.637
30.37000 418.774
30.54000 442.452
30.71000 445.350
30.88000 488.520
31.05000 637.507
31.22000 1426.703
31.39000 2850.999
31.56000 1889.542
31.73000 751.789
31.90000 523.257
32.07000 434.103
32.24000 397.727
32.41000 395.576
32.58000 393.643
32.75000 370.101
32.92000 396.427
33.09000 371.694
33.26000 340.775
33.43000 358.890
33.60000 346.507
33.77000 333.555
33.94000 347.750
34.11000 349.763
34.28000 342.944
34.45000 336.000
34.62000 325.989
34.79000 321.533
34.96000 317.573
35.13000 310.856
35.30000 317.537
35.47000 311.562
35.64000 299.439
35.81000 301.130
35.98000 299.384
36.15000 298.766
36.32000 290.517
36.49000 296.582
36.66000 291.595
36.83000 286.052
37.00000 294.005
37.17000 303.627
37.34000 301.513
37.51000 283.663
37.68000 288.238
37.85000 291.534
38.02000 301.232
38.19000 302.441
38.36000 344.930
38.53000 509.026
38.70000 1013.049
38.87000 855.685
39.04000 405.788
39.21000 310.142
39.38000 295.086
39.55000 271.026
39.72000 267.053
39.89000 260.433
40.06000 256.463
40.23000 254.515
40.40000 263.186
40.57000 251.306
40.74000 239.938
40.91000 265.131
41.08000 246.944
41.25000 229.637
41.42000 242.995
41.59000 251.889
41.76000 242.861
41.93000 236.769
42.10000 240.138
42.27000 239.853
42.44000 239.555
42.61000 230.165
42.78000 236.428
42.95000 223.273
43.12000 237.291
43.29000 238.463
43.46000 223.192
43.63000 220.216
43.80000 216.533
43.97000 226.104
44.14000 241.484
44.31000 225.380
44.48000 238.423
44.65000 246.389
44.82000 267.002
44.99000 301.109
45.16000 334.394
45.33000 341.357
45.50000 284.733
45.67000 265.376
45.84000 234.451
46.01000 209.434
46.18000 201.250
46.35000 206.897
46.52000 204.345
46.69000 206.020
46.86000 220.445
47.03000 192.495
47.20000 202.637
47.37000 189.479
47.54000 193.925
47.71000 179.087
47.88000 189.413
48.05000 184.034
48.22000 189.371
48.39000 186.574
48.56000 185.757
48.73000 183.732
48.90000 172.616
49.07000 176.802
49.24000 182.723
49.41000 178.844
49.58000 181.342
49.75000 179.100
49.92000 167.432
50.09000 183.671
50.26000 174.530
50.43000 183.162
50.60000 227.661
50.77000 260.810
50.94000 207.310
51.11000 195.285
51.28000 176.440
51.45000 168.496
51.62000 177.965
51.79000 162.638
51.96000 168.203
52.13000 161.823
52.30000 163.071
52.47000 161.457
52.64000 153.433
52.81000 162.688
52.98000 165.894
53.15000 163.781
53.32000 147.570
53.49000 167.708
53.66000 165.650
53.83000 155.995
54.00000 161.437
54.17000 150.884
54.34000 159.377
54.51000 156.090
54.68000 143.193
54.85000 155.241
55.02000 153.686
55.19000 163.426
55.36000 155.885
55.53000 190.240
55.70000 255.616
55.87000 416.152
56.04000 511.919
56.21000 370.880
56.38000 242.932
56.55000 187.258
56.72000 159.951
56.89000 153.270
57.06000 148.159
57.23000 150.362
57.40000 140.232
57.57000 133.790
57.74000 151.183
57.91000 134.474
58.08000 136.867
58.25000 142.281
58.42000 142.361
58.59000 137.529
58.76000 138.162
58.93000 125.612
59.10000 125.740
59.27000 135.970
59.44000 139.848
59.61000 130.762
59.78000 134.017
59.95000 133.257
60.12000 136.681
60.29000 132.792
60.46000 135.898
60.63000 135.001
60.80000 132.038
60.97000 128.562
61.14000 131.575
61.31000 145.494
61.48000 156.451
61.65000 271.191
61.82000 188.559
61.99000 144.402
62.16000 149.093
62.33000 135.492
62.50000 148.706
62.67000 143.381
62.84000 141.637
63.01000 137.959
63.18000 145.201
63.35000 143.650
63.52000 151.336
63.69000 145.575
63.86000 160.020
64.03000 151.128
64.20000 155.691
64.37000 157.905
64.54000 165.027
64.71000 174.301
64.88000 180.841
65.05000 198.512
65.22000 225.526
65.39000 265.033
65.56000 388.108
65.73000 711.981
65.90000 1110.826
66.07000 367.750
66.24000 343.246
66.41000 461.006
66.58000 348.856
66.75000 317.322
66.92000 330.903
67.09000 361.789
67.26000 384.995
67.43000 401.177
67.60000 467.547
67.77000 475.571
67.94000 514.865
68.11000 562.102
68.28000 633.449
68.45000 738.685
68.62000 1071.846
68.79000 2021.761
68.96000 14360.399
69.13000 61523.301
69.30000 35392.102
69.47000 8160.752
69.64000 1276.362
69.81000 847.001
69.98000 716.405
70.00000 674.041

File: BTO_Mapping_Theta2Theta_22-09-2025_001_16_31-174_39-092.xy
20.00000 1328.750
20.17000 1278.489
20.34000 1283.526
20.51000 1250.024
20.68000 1215.813
20.85000 1209.228
21.02000 1230.801
21.19000 1190.438
21.36000 1169.162
21.53000 1164.723
21.70000 1183.452
21.87000 1180.763
22.04000 1131.471
22.21000 1128.490
22.38000 1105.470
22.55000 1118.701
22.72000 1086.804
22.89000 1069.072
23.06000 1075.080
23.23000 1057.820
23.40000 1052.117
23.57000 1008.277
23.74000 999.692
23.91000 1020.139
24.08000 966.675
24.25000 1014.035
24.42000 995.708
24.59000 963.276
24.76000 941.211
24.93000 941.641
25.10000 929.183
25.27000 928.590
25.44000 930.843
25.61000 909.233
25.78000 899.602
25.95000 881.885
26.12000 901.899
26.29000 883.966
26.46000 882.821
26.63000 863.361
26.80000 860.170
26.97000 834.762
27.14000 857.659
27.31000 835.582
27.48000 849.050
27.65000 832.422
27.82000 833.941
27.99000 842.276
28.16000 822.385
28.33000 836.652
28.50000 799.155
28.67000 804.621
28.84000 813.600
29.01000 800.736
29.18000 793.738
29.35000 802.747
29.52000 823.821
29.69000 837.780
29.86000 794.045
30.03000 792.542
30.20000 790.770
30.37000 800.557
30.54000 801.604
30.71000 786.911
30.88000 804.223
31.05000 773.495
31.22000 785.433
31.39000 802.685
31.56000 835.764
31.73000 797.801
31.90000 813.370
32.07000 808.479
32.24000 816.478
32.41000 801.805
32.58000 813.271
32.75000 828.441
32.92000 807.515
33.09000 824.661
33.26000 804.098
33.43000 854.964
33.60000 841.305
33.77000 826.947
33.94000 849.832
34.11000 856.913
34.28000 838.258
34.45000 849.332
34.62000 879.495
34.79000 863.765
34.96000 866.292
35.13000 915.612
35.30000 891.656
35.47000 889.951
35.64000 901.636
35.81000 892.080
35.98000 895.789
36.15000 936.950
36.32000 927.601
36.49000 930.992
36.66000 931.952
36.83000 964.267
37.00000 943.714
37.17000 963.406
37.34000 946.459
37.51000 964.725
37.68000 974.464
37.85000 959.313
38.02000 978.320
38.19000 969.158
38.36000 1011.161
38.53000 1012.337
38.70000 1030.592
38.87000 1026.135
39.04000 1050.560
39.21000 1054.041
39.38000 1022.641
39.55000 1066.226
39.72000 1099.640
39.89000 1078.886
40.06000 1089.672
40.23000 1114.386
40.40000 1100.385
40.57000 1112.125
40.74000 1125.385
40.91000 1146.776
41.08000 1131.061
41.25000 1152.006
41.42000 1146.601
41.59000 1156.212
41.76000 1158.079
41.93000 1162.413
42.10000 1202.744
42.27000 1241.942
42.44000 1180.027
42.61000 1213.641
42.78000 1227.359
42.95000 1260.866
43.12000 1277.438
43.29000 1286.706
43.46000 1309.795
43.63000 1383.837
43.80000 1529.604
43.97000 2150.460
44.14000 3777.650
44.31000 4291.740
44.48000 2593.552
44.65000 1651.283
44.82000 1428.924
44.99000 1376.150
45.16000 1362.805
45.33000 1337.616
45.50000 1311.016
45.67000 1357.882
45.84000 1341.267
46.01000 1385.125
46.18000 1370.245
46.35000 1381.686
46.52000 1357.065
46.69000 1374.970
46.86000 1412.581
47.03000 1372.866
47.20000 1391.440
47.37000 1390.544
47.54000 1393.211
47.71000 1426.406
47.88000 1437.305
48.05000 1454.815
48.22000 1477.172
48.39000 1435.425
48.56000 1475.148
48.73000 1453.201
48.90000 1492.368
49.07000 1489.197
49.24000 1486.347
49.41000 1485.265
49.58000 1510.665
49.75000 1510.089
49.92000 1503.999
50.09000 1514.187
50.26000 1513.464
50.43000 1494.330
50.60000 1550.568
50.77000 1539.791
50.94000 1534.672
51.11000 1526.337
51.28000 1561.922
51.45000 1543.044
51.62000 1525.186
51.79000 1555.354
51.96000 1564.167
52.13000 1588.372
52.30000 1582.610
52.47000 1585.176
52.64000 1580.098
52.81000 1591.544
52.98000 1588.210
53.15000 1624.039
53.32000 1605.149
53.49000 1590.533
53.66000 1650.590
53.83000 1633.430
54.00000 1621.322
54.17000 1644.102
54.34000 1662.314
54.51000 1620.210
54.68000 1681.094
54.85000 1670.974
55.02000 1679.588
55.19000 1666.682
55.36000 1648.804
55.53000 1645.115
55.70000 1690.512
55.87000 1687.100
56.04000 1692.603
56.21000 1679.294
56.38000 1684.896
56.55000 1715.174
56.72000 1708.246
56.89000 1706.600
57.06000 1736.890
57.23000 1714.234
57.40000 1714.380
57.57000 1754.728
57.74000 1752.200
57.91000 1708.432
58.08000 1691.261
58.25000 1747.410
58.42000 1746.532
58.59000 1761.679
58.76000 1753.650
58.93000 1741.520
59.10000 1745.977
59.27000 1777.444
59.44000 1771.543
59.61000 1744.333
59.78000 1787.047
59.95000 1778.206
60.12000 1811.425
60.29000 1806.387
60.46000 1795.391
60.63000 1811.223
60.80000 1787.833
60.97000 1771.587
61.14000 1805.170
61.31000 1816.448
61.48000 1795.139
61.65000 1828.993
61.82000 1800.987
61.99000 1812.535
62.16000 1815.687
62.33000 1836.927
62.50000 1830.942
62.67000 1860.666
62.84000 1844.303
63.01000 1833.834
63.18000 1863.344
63.35000 1903.770
63.52000 1879.282
63.69000 1864.787
63.86000 1876.388
64.03000 1925.812
64.20000 1939.508
64.37000 2050.249
64.54000 2184.249
64.71000 2093.803
64.88000 2051.681
65.05000 1932.611
65.22000 1916.362
65.39000 1943.419
65.56000 1930.123
65.73000 2049.995
65.90000 2018.911
66.07000 1962.454
66.24000 1905.113
66.41000 1916.468
66.58000 1910.947
66.75000 1956.120
66.92000 1957.687
67.09000 1976.255
67.26000 1968.114
67.43000 1986.260
67.60000 1980.270
67.77000 1968.323
67.94000 1990.150
68.11000 2000.832
68.28000 2078.520
68.45000 2060.865
68.62000 2174.189
68.79000 2388.226
68.96000 10174.605
69.13000 15318.321
69.30000 8368.101
69.47000 2433.269
69.64000 2153.607
69.81000 2101.307
69.98000 2030.223
70.00000 2020.451

File: BTO_Mapping_Theta2Theta_22-09-2025_001_18_4-450_19-499.xy
20.00000 570.324
20.17000 575.092
20.34000 571.135
20.51000 567.143
20.68000 553.812
20.85000 574.387
21.02000 569.325
21.19000 529.297
21.36000 533.189
21.53000 578.796
21.70000 592.702
21.87000 657.236
22.04000 778.750
22.21000 728.435
22.38000 617.204
22.55000 546.463
22.72000 548.249
22.89000 520.042
23.06000 501.998
23.23000 525.537
23.40000 518.408
23.57000 506.180
23.74000 509.867
23.91000 508.345
24.08000 517.904
24.25000 492.523
24.42000 487.135
24.59000 491.022
24.76000 488.771
24.93000 458.423
25.10000 480.616
25.27000 467.921
25.44000 467.925
25.61000 455.787
25.78000 487.323
25.95000 452.989
26.12000 463.766
26.29000 449.389
26.46000 466.645
26.63000 482.600
26.80000 452.628
26.97000 448.430
27.14000 468.030
27.31000 435.154
27.48000 427.779
27.65000 432.936
27.82000 427.502
27.99000 424.893
28.16000 427.866
28.33000 420.849
28.50000 400.740
28.67000 429.710
28.84000 412.979
29.01000 420.800
29.18000 416.887
29.35000 426.552
29.52000 412.501
29.69000 438.032
29.86000 438.625
30.03000 437.083
30.20000 440.328
30.37000 457.124
30.54000 429.391
30.71000 470.770
30.88000 489.356
31.05000 697.990
31.22000 1771.895
31.39000 3440.877
31.56000 2131.405
31.73000 826.072
31.90000 509.095
32.07000 422.221
32.24000 411.281
32.41000 402.902
32.58000 394.269
32.75000 396.939
32.92000 400.613
33.09000 373.003
33.26000 348.294
33.43000 345.596
33.60000 356.337
33.77000 344.450
33.94000 358.987
34.11000 331.758
34.28000 343.826
34.45000 343.799
34.62000 331.076
34.79000 326.917
34.96000 299.337
35.13000 330.816
35.30000 337.825
35.47000 309.368
35.64000 302.910
35.81000 300.327
35.98000 312.467
36.15000 306.162
36.32000 319.215
36.49000 301.478
36.66000 306.414
36.83000 298.364
37.00000 301.612
37.17000 304.979
37.34000 305.256
37.51000 296.362
37.68000 294.401
37.85000 288.040
38.02000 300.230
38.19000 294.623
38.36000 371.198
38.53000 573.864
38.70000 974.782
38.87000 779.004
39.04000 391.585
39.21000 304.664
39.38000 276.992
39.55000 269.741
39.72000 280.465
39.89000 279.528
40.06000 268.507
40.23000 269.421
40.40000 262.394
40.57000 249.888
40.74000 254.611
40.91000 267.771
41.08000 243.525
41.25000 253.767
41.42000 248.599
41.59000 245.299
41.76000 244.625
41.93000 241.228
42.10000 221.086
42.27000 234.095
42.44000 231.392
42.61000 239.942
42.78000 235.154
42.95000 229.256
43.12000 228.841
43.29000 222.433
43.46000 225.974
43.63000 213.551
43.80000 214.946
43.97000 218.736
44.14000 220.939
44.31000 231.687
44.48000 243.222
44.65000 251.728
44.82000 313.039
44.99000 383.764
45.16000 419.185
45.33000 362.248
45.50000 293.955
45.67000 268.222
45.84000 230.768
46.01000 231.551
46.18000 209.873
46.35000 204.191
46.52000 214.755
46.69000 197.110
46.86000 201.805
47.03000 197.693
47.20000 194.335
47.37000 199.845
47.54000 190.131
47.71000 180.219
47.88000 176.890
48.05000 183.016
48.22000 179.740
48.39000 177.575
48.56000 192.582
48.73000 180.870
48.90000 177.318
49.07000 169.244
49.24000 169.150
49.41000 180.322
49.58000 182.054
49.75000 174.632
49.92000 171.635
50.09000 173.901
50.26000 179.051
50.43000 191.123
50.60000 237.517
50.77000 256.565
50.94000 239.679
51.11000 190.637
51.28000 170.119
51.45000 186.464
51.62000 168.773
51.79000 161.455
51.96000 158.085
52.13000 156.593
52.30000 162.209
52.47000 154.341
52.64000 164.748
52.81000 155.479
52.98000 165.278
53.15000 167.144
53.32000 151.322
53.49000 166.693
53.66000 161.082
53.83000 155.648
54.00000 155.119
54.17000 156.469
54.34000 146.203
54.51000 156.281
54.68000 160.570
54.85000 153.607
55.02000 155.165
55.19000 172.067
55.36000 174.690
55.53000 204.320
55.70000 275.088
55.87000 464.571
56.04000 555.917
56.21000 375.048
56.38000 248.510
56.55000 203.500
56.72000 173.131
56.89000 163.337
57.06000 150.540
57.23000 144.614
57.40000 136.388
57.57000 139.327
57.74000 146.200
57.91000 144.413
58.08000 149.448
58.25000 143.094
58.42000 133.846
58.59000 135.463
58.76000 147.001
58.93000 133.926
59.10000 141.352
59.27000 142.412
59.44000 147.128
59.61000 137.877
59.78000 138.701
59.95000 132.458
60.12000 132.346
60.29000 143.690
60.46000 136.082
60.63000 129.538
60.80000 129.371
60.97000 135.408
61.14000 138.659
61.31000 134.520
61.48000 164.323
61.65000 300.184
61.82000 215.702
61.99000 145.757
62.16000 140.199
62.33000 144.847
62.50000 143.929
62.67000 153.397
62.84000 151.678
63.01000 150.840
63.18000 142.278
63.35000 152.561
63.52000 155.469
63.69000 156.026
63.86000 153.211
64.03000 151.245
64.20000 159.746
64.37000 167.601
64.54000 176.937
64.71000 165.715
64.88000 180.533
65.05000 210.614
65.22000 240.962
65.39000 329.352
65.56000 432.369
65.73000 825.233
65.90000 1339.083
66.07000 444.430
66.24000 360.194
66.41000 507.301
66.58000 377.171
66.75000 329.714
66.92000 355.962
67.09000 391.627
67.26000 406.348
67.43000 452.498
67.60000 471.422
67.77000 509.213
67.94000 549.225
68.11000 608.103
68.28000 692.429
68.45000 815.102
68.62000 1161.221
68.79000 2423.074
68.96000 17975.957
69.13000 74603.672
69.30000 43517.754
69.47000 10047.087
69.64000 1450.611
69.81000 933.638
69.98000 728.442
70.00000 728.600

File: BTO_Mapping_Theta2Theta_22-09-2025_001_19_6-676_29-248.xy
20.00000 553.440
20.17000 559.661
20.34000 553.035
20.51000 553.284
20.68000 570.522
20.85000 563.032
21.02000 543.092
21.19000 562.314
21.36000 546.122
21.53000 579.703
21.70000 591.947
21.87000 654.117
22.04000 774.057
22.21000 712.045
22.38000 631.677
22.55000 571.655
22.72000 540.757
22.89000 516.925
23.06000 516.699
23.23000 521.070
23.40000 510.633
23.57000 495.979
23.74000 513.104
23.91000 511.325
24.08000 507.150
24.25000 508.560
24.42000 494.844
24.59000 492.893
24.76000 484.456
24.93000 491.482
25.10000 474.356
25.27000 467.119
25.44000 467.694
25.61000 468.593
25.78000 464.664
25.95000 450.007
26.12000 455.372
26.29000 466.887
26.46000 456.640
26.63000 460.574
26.80000 455.592
26.97000 429.711
27.14000 464.895
27.31000 446.525
27.48000 460.538
27.65000 428.194
27.82000 437.667
27.99000 433.398
28.16000 439.194
28.33000 418.592
28.50000 415.808
28.67000 408.468
28.84000 423.685
29.01000 417.749
29.18000 417.331
29.35000 424.837
29.52000 402.839
29.69000 417.226
29.86000 425.335
30.03000 457.594
30.20000 437.654
30.37000 452.255
30.54000 436.620
30.71000 466.178
30.88000 491.704
31.05000 677.322
31.22000 1696.389
31.39000 3333.016
31.56000 2100.680
31.73000 813.800
31.90000 510.372
32.07000 424.650
32.24000 420.282
32.41000 393.579
32.58000 410.772
32.75000 401.446
32.92000 386.923
33.09000 381.202
33.26000 349.017
33.43000 342.768
33.60000 352.721
33.77000 347.645
33.94000 323.334
34.11000 346.478
34.28000 332.002
34.45000 326.799
34.62000 337.454
34.79000 330.526
34.96000 310.494
35.13000 329.054
35.30000 328.381
35.47000 313.631
35.64000 296.799
35.81000 303.538
35.98000 308.618
36.15000 307.347
36.32000 289.819
36.49000 318.495
36.66000 289.037
36.83000 307.554
37.00000 312.601
37.17000 304.834
37.34000 287.438
37.51000 285.718
37.68000 289.480
37.85000 300.714
38.02000 296.458
38.19000 305.917
38.36000 343.187
38.53000 528.878
38.70000 953.906
38.87000 772.897
39.04000 387.870
39.21000 302.612
39.38000 290.246
39.55000 281.575
39.72000 265.805
39.89000 257.793
40.06000 266.083
40.23000 267.134
40.40000 260.699
40.57000 254.326
40.74000 265.334
40.91000 253.291
41.08000 240.513
41.25000 241.775
41.42000 262.935
41.59000 248.239
41.76000 236.729
41.93000 250.989
42.10000 238.216
42.27000 225.557
42.44000 250.129
42.61000 245.909
42.78000 230.175
42.95000 237.853
43.12000 229.248
43.29000 233.509
43.46000 229.408
43.63000 220.394
43.80000 211.746
43.97000 224.374
44.14000 236.822
44.31000 229.325
44.48000 229.449
44.65000 239.609
44.82000 277.131
44.99000 370.109
45.16000 399.381
45.33000 362.837
45.50000 293.411
45.67000 255.488
45.84000 235.810
46.01000 230.252
46.18000 211.990
46.35000 200.800
46.52000 209.611
46.69000 194.490
46.86000 209.419
47.03000 199.884
47.20000 198.020
47.37000 181.858
47.54000 192.777
47.71000 186.246
47.88000 176.957
48.05000 178.464
48.22000 185.367
48.39000 185.737
48.56000 189.715
48.73000 167.583
48.90000 172.553
49.07000 183.835
49.24000 170.940
49.41000 180.600
49.58000 170.310
49.75000 179.723
49.92000 181.244
50.09000 169.191
50.26000 180.314
50.43000 197.421
50.60000 235.232
50.77000 273.606
50.94000 239.967
51.11000 192.206
51.28000 176.896
51.45000 168.339
51.62000 176.022
51.79000 170.280
51.96000 169.299
52.13000 150.655
52.30000 163.309
52.47000 149.102
52.64000 169.860
52.81000 160.695
52.98000 156.342
53.15000 160.129
53.32000 165.523
53.49000 155.228
53.66000 157.104
53.83000 158.123
54.00000 164.683
54.17000 148.900
54.34000 154.139
54.51000 158.160
54.68000 157.351
54.85000 167.052
55.02000 163.589
55.19000 152.841
55.36000 171.456
55.53000 198.081
55.70000 256.661
55.87000 450.333
56.04000 527.240
56.21000 365.405
56.38000 247.436
56.55000 203.462
56.72000 171.090
56.89000 167.269
57.06000 153.950
57.23000 153.350
57.40000 143.351
57.57000 144.962
57.74000 146.778
57.91000 147.271
58.08000 147.330
58.25000 144.683
58.42000 143.662
58.59000 137.149
58.76000 142.317
58.93000 146.820
59.10000 139.128
59.27000 135.633
59.44000 133.579
59.61000 133.968
59.78000 124.245
59.95000 131.342
60.12000 135.464
60.29000 150.333
60.46000 134.576
60.63000 128.879
60.80000 126.997
60.97000 131.129
61.14000 139.433
61.31000 132.933
61.48000 145.331
61.65000 277.888
61.82000 203.158
61.99000 150.110
62.16000 138.001
62.33000 145.735
62.50000 146.499
62.67000 140.334
62.84000 140.506
63.01000 148.718
63.18000 130.173
63.35000 152.105
63.52000 144.890
63.69000 156.936
63.86000 162.316
64.03000 148.284
64.20000 163.168
64.37000 162.541
64.54000 172.595
64.71000 172.496
64.88000 183.171
65.05000 204.343
65.22000 229.412
65.39000 307.496
65.56000 414.160
65.73000 762.121
65.90000 1278.046
66.07000 416.116
66.24000 343.292
66.41000 489.301
66.58000 368.170
66.75000 317.257
66.92000 355.360
67.09000 368.447
67.26000 411.792
67.43000 421.720
67.60000 441.101
67.77000 485.650
67.94000 541.922
68.11000 591.289
68.28000 675.227
68.45000 790.088
68.62000 1165.572
68.79000 2240.098
68.96000 17128.129
69.13000 70572.984
69.30000 40903.148
69.47000 9261.316
69.64000 1386.978
69.81000 886.055
69.98000 717.280
70.00000 732.349