Folder: Master-Thesis/XRD/XRD/08-10-2025 Dep 7/XY Data (part 2)

File: BTO_Mapping_Theta2Theta_08-10-2025_001_07_18-271_8-135.xy
20.00000 500.913
20.17000 457.888
20.34000 461.094
20.51000 473.480
20.68000 463.722
20.85000 464.282
21.02000 491.583
21.19000 476.786
21.36000 457.497
21.53000 452.940
21.70000 479.071
21.87000 497.084
22.04000 504.685
22.21000 499.322
22.38000 466.543
22.55000 446.242
22.72000 439.097
22.89000 456.839
23.06000 445.583
23.23000 452.941
23.40000 436.317
23.57000 469.820
23.74000 484.794
23.91000 531.361
24.08000 528.536
24.25000 470.015
24.42000 444.188
24.59000 418.434
24.76000 421.273
24.93000 406.650
25.10000 395.475
25.27000 402.938
25.44000 410.544
25.61000 396.370
25.78000 374.545
25.95000 384.123
26.12000 395.510
26.29000 385.587
26.46000 395.573
26.63000 392.841
26.80000 405.199
26.97000 372.986
27.14000 385.884
27.31000 377.267
27.48000 353.411
27.65000 377.365
27.82000 360.311
27.99000 374.320
28.16000 378.563
28.33000 358.046
28.50000 372.383
28.67000 360.482
28.84000 353.409
29.01000 357.806
29.18000 366.320
29.35000 352.127
29.52000 364.831
29.69000 362.470
29.86000 388.844
30.03000 377.210
30.20000 388.438
30.37000 366.380
30.54000 359.381
30.71000 389.919
30.88000 404.223
31.05000 510.100
31.22000 829.159
31.39000 1058.434
31.56000 731.692
31.73000 462.408
31.90000 374.134
32.07000 356.993
32.24000 347.968
32.41000 344.577
32.58000 326.761
32.75000 322.040
32.92000 328.188
33.09000 306.188
33.26000 313.258
33.43000 299.533
33.60000 285.897
33.77000 300.690
33.94000 323.617
34.11000 326.905
34.28000 348.671
34.45000 326.271
34.62000 309.578
34.79000 287.224
34.96000 286.575
35.13000 289.580
35.30000 277.919
35.47000 266.989
35.64000 258.332
35.81000 263.141
35.98000 260.471
36.15000 267.662
36.32000 270.921
36.49000 258.451
36.66000 244.635
36.83000 270.108
37.00000 273.059
37.17000 250.306
37.34000 252.492
37.51000 246.732
37.68000 243.800
37.85000 257.995
38.02000 231.912
38.19000 263.397
38.36000 307.126
38.53000 548.241
38.70000 833.379
38.87000 567.453
39.04000 295.729
39.21000 251.927
39.38000 242.693
39.55000 241.982
39.72000 239.724
39.89000 236.620
40.06000 228.772
40.23000 227.030
40.40000 227.824
40.57000 221.195
40.74000 226.831
40.91000 216.771
41.08000 204.527
41.25000 216.304
41.42000 220.890
41.59000 204.483
41.76000 213.611
41.93000 218.293
42.10000 224.878
42.27000 221.548
42.44000 209.245
42.61000 215.205
42.78000 205.595
42.95000 208.867
43.12000 203.260
43.29000 199.040
43.46000 188.838
43.63000 195.403
43.80000 194.375
43.97000 201.424
44.14000 193.835
44.31000 195.992
44.48000 205.013
44.65000 233.616
44.82000 227.961
44.99000 228.981
45.16000 225.763
45.33000 221.383
45.50000 203.394
45.67000 193.342
45.84000 188.353
46.01000 174.230
46.18000 187.623
46.35000 170.179
46.52000 177.986
46.69000 169.937
46.86000 178.412
47.03000 165.032
47.20000 169.613
47.37000 160.545
47.54000 171.182
47.71000 154.696
47.88000 176.643
48.05000 165.076
48.22000 166.356
48.39000 162.908
48.56000 162.128
48.73000 159.841
48.90000 158.800
49.07000 162.511
49.24000 160.364
49.41000 163.562
49.58000 148.952
49.75000 160.936
49.92000 152.295
50.09000 156.692
50.26000 160.025
50.43000 164.076
50.60000 153.253
50.77000 165.209
50.94000 163.601
51.11000 145.847
51.28000 150.418
51.45000 138.073
51.62000 139.677
51.79000 144.839
51.96000 146.325
52.13000 141.798
52.30000 139.762
52.47000 133.384
52.64000 145.553
52.81000 144.259
52.98000 146.094
53.15000 141.329
53.32000 156.111
53.49000 142.110
53.66000 140.616
53.83000 141.069
54.00000 154.002
54.17000 145.050
54.34000 136.608
54.51000 151.358
54.68000 142.049
54.85000 150.456
55.02000 145.689
55.19000 151.013
55.36000 177.778
55.53000 199.192
55.70000 299.617
55.87000 392.341
56.04000 391.080
56.21000 273.842
56.38000 186.853
56.55000 163.824
56.72000 141.183
56.89000 136.756
57.06000 155.134
57.23000 141.374
57.40000 114.662
57.57000 119.528
57.74000 136.307
57.91000 127.816
58.08000 125.238
58.25000 122.844
58.42000 118.306
58.59000 122.856
58.76000 122.779
58.93000 124.021
59.10000 121.396
59.27000 125.204
59.44000 116.930
59.61000 122.649
59.78000 116.041
59.95000 114.063
60.12000 114.284
60.29000 125.493
60.46000 123.250
60.63000 114.939
60.80000 121.133
60.97000 121.540
61.14000 127.207
61.31000 125.518
61.48000 138.310
61.65000 281.037
61.82000 190.945
61.99000 131.716
62.16000 130.147
62.33000 134.557
62.50000 127.095
62.67000 130.072
62.84000 134.807
63.01000 134.810
63.18000 138.566
63.35000 139.711
63.52000 138.527
63.69000 130.430
63.86000 145.181
64.03000 140.589
64.20000 144.092
64.37000 162.599
64.54000 144.668
64.71000 182.800
64.88000 192.567
65.05000 214.325
65.22000 219.365
65.39000 241.459
65.56000 318.972
65.73000 1065.526
65.90000 1901.594
66.07000 484.052
66.24000 375.428
66.41000 617.533
66.58000 414.749
66.75000 350.049
66.92000 353.037
67.09000 374.328
67.26000 379.318
67.43000 422.621
67.60000 428.356
67.77000 458.572
67.94000 476.684
68.11000 513.265
68.28000 588.089
68.45000 659.055
68.62000 916.216
68.79000 1615.625
68.96000 10085.533
69.13000 44203.168
69.30000 23108.672
69.47000 5278.665
69.64000 897.108
69.81000 598.938
69.98000 502.633
70.00000 490.073

File: BTO_Mapping_Theta2Theta_08-10-2025_001_08_27-406_12-202.xy
20.00000 488.278
20.17000 490.174
20.34000 478.720
20.51000 470.056
20.68000 470.697
20.85000 458.802
21.02000 459.644
21.19000 456.407
21.36000 476.140
21.53000 462.950
21.70000 472.431
21.87000 493.663
22.04000 506.673
22.21000 482.818
22.38000 471.233
22.55000 454.658
22.72000 443.999
22.89000 420.457
23.06000 455.344
23.23000 443.234
23.40000 447.002
23.57000 455.331
23.74000 483.077
23.91000 525.296
24.08000 519.702
24.25000 475.646
24.42000 448.958
24.59000 421.689
24.76000 414.245
24.93000 398.624
25.10000 397.304
25.27000 402.731
25.44000 406.812
25.61000 417.706
25.78000 402.138
25.95000 393.836
26.12000 406.917
26.29000 390.498
26.46000 397.787
26.63000 393.293
26.80000 369.333
26.97000 384.259
27.14000 389.204
27.31000 369.501
27.48000 368.592
27.65000 380.142
27.82000 373.604
27.99000 378.077
28.16000 372.934
28.33000 358.745
28.50000 357.097
28.67000 360.942
28.84000 370.091
29.01000 377.966
29.18000 360.672
29.35000 377.060
29.52000 361.757
29.69000 366.318
29.86000 380.116
30.03000 393.765
30.20000 371.787
30.37000 384.378
30.54000 375.769
30.71000 383.861
30.88000 401.417
31.05000 527.378
31.22000 824.877
31.39000 1012.048
31.56000 731.144
31.73000 478.026
31.90000 384.049
32.07000 368.524
32.24000 353.518
32.41000 338.613
32.58000 341.310
32.75000 327.891
32.92000 340.770
33.09000 305.699
33.26000 299.052
33.43000 302.008
33.60000 290.568
33.77000 303.734
33.94000 315.689
34.11000 310.104
34.28000 329.780
34.45000 308.398
34.62000 292.828
34.79000 285.176
34.96000 281.023
35.13000 274.337
35.30000 267.746
35.47000 266.069
35.64000 276.850
35.81000 273.235
35.98000 272.374
36.15000 249.354
36.32000 255.724
36.49000 244.539
36.66000 272.499
36.83000 266.203
37.00000 270.020
37.17000 261.669
37.34000 265.177
37.51000 249.634
37.68000 248.580
37.85000 232.869
38.02000 254.329
38.19000 257.684
38.36000 307.270
38.53000 496.426
38.70000 697.237
38.87000 477.474
39.04000 282.144
39.21000 232.575
39.38000 258.234
39.55000 239.902
39.72000 230.173
39.89000 228.135
40.06000 219.958
40.23000 233.159
40.40000 227.560
40.57000 223.985
40.74000 222.187
40.91000 203.444
41.08000 199.359
41.25000 204.222
41.42000 220.485
41.59000 218.910
41.76000 208.107
41.93000 224.618
42.10000 225.778
42.27000 225.060
42.44000 211.609
42.61000 211.510
42.78000 209.599
42.95000 210.030
43.12000 207.856
43.29000 207.806
43.46000 198.891
43.63000 198.386
43.80000 192.362
43.97000 187.144
44.14000 205.767
44.31000 192.952
44.48000 213.386
44.65000 223.853
44.82000 223.768
44.99000 240.492
45.16000 241.082
45.33000 227.526
45.50000 214.695
45.67000 185.415
45.84000 177.968
46.01000 186.429
46.18000 187.118
46.35000 172.126
46.52000 176.895
46.69000 174.042
46.86000 159.109
47.03000 178.345
47.20000 168.478
47.37000 171.416
47.54000 162.260
47.71000 169.967
47.88000 159.159
48.05000 161.244
48.22000 175.139
48.39000 156.100
48.56000 163.403
48.73000 152.572
48.90000 153.541
49.07000 164.819
49.24000 152.362
49.41000 153.870
49.58000 156.843
49.75000 148.146
49.92000 161.196
50.09000 157.611
50.26000 158.297
50.43000 168.322
50.60000 158.773
50.77000 164.553
50.94000 158.503
51.11000 155.641
51.28000 149.604
51.45000 153.825
51.62000 135.886
51.79000 149.044
51.96000 142.924
52.13000 146.807
52.30000 142.951
52.47000 130.316
52.64000 145.335
52.81000 144.398
52.98000 142.966
53.15000 144.421
53.32000 146.096
53.49000 143.866
53.66000 153.385
53.83000 149.784
54.00000 139.546
54.17000 148.215
54.34000 136.836
54.51000 143.524
54.68000 142.592
54.85000 135.411
55.02000 144.569
55.19000 143.415
55.36000 167.683
55.53000 206.185
55.70000 250.715
55.87000 297.989
56.04000 292.389
56.21000 234.894
56.38000 178.009
56.55000 154.303
56.72000 146.938
56.89000 140.390
57.06000 137.164
57.23000 118.819
57.40000 136.512
57.57000 127.938
57.74000 122.977
57.91000 121.562
58.08000 132.292
58.25000 120.707
58.42000 124.550
58.59000 120.824
58.76000 124.676
58.93000 121.973
59.10000 124.631
59.27000 114.367
59.44000 121.300
59.61000 116.305
59.78000 120.604
59.95000 120.560
60.12000 113.286
60.29000 124.265
60.46000 124.868
60.63000 114.594
60.80000 122.567
60.97000 120.296
61.14000 131.835
61.31000 125.423
61.48000 137.983
61.65000 276.013
61.82000 182.020
61.99000 131.190
62.16000 132.746
62.33000 133.399
62.50000 131.244
62.67000 129.252
62.84000 136.982
63.01000 138.084
63.18000 132.453
63.35000 136.531
63.52000 141.322
63.69000 141.478
63.86000 148.302
64.03000 141.568
64.20000 154.751
64.37000 159.890
64.54000 180.703
64.71000 166.000
64.88000 184.576
65.05000 196.750
65.22000 219.595
65.39000 250.843
65.56000 335.208
65.73000 1093.559
65.90000 1902.138
66.07000 468.637
66.24000 412.590
66.41000 665.688
66.58000 399.781
66.75000 358.114
66.92000 363.624
67.09000 380.536
67.26000 386.942
67.43000 406.809
67.60000 427.580
67.77000 472.299
67.94000 485.983
68.11000 527.320
68.28000 589.658
68.45000 672.318
68.62000 932.215
68.79000 1669.807
68.96000 11323.433
69.13000 45527.508
69.30000 23175.289
69.47000 4978.709
69.64000 900.679
69.81000 617.332
69.98000 511.129
70.00000 508.719

File: BTO_Mapping_Theta2Theta_08-10-2025_001_10_6-691_7-431.xy
20.00000 477.066
20.17000 477.344
20.34000 463.161
20.51000 443.249
20.68000 465.253
20.85000 457.880
21.02000 482.216
21.19000 471.763
21.36000 474.041
21.53000 469.461
21.70000 473.440
21.87000 483.054
22.04000 496.004
22.21000 511.336
22.38000 468.405
22.55000 441.370
22.72000 471.344
22.89000 450.339
23.06000 450.364
23.23000 441.159
23.40000 451.570
23.57000 449.584
23.74000 469.450
23.91000 500.094
24.08000 507.667
24.25000 451.212
24.42000 435.114
24.59000 405.299
24.76000 405.182
24.93000 403.273
25.10000 402.235
25.27000 393.839
25.44000 402.092
25.61000 392.210
25.78000 383.595
25.95000 394.814
26.12000 391.404
26.29000 385.490
26.46000 371.994
26.63000 391.935
26.80000 397.194
26.97000 388.043
27.14000 357.036
27.31000 385.402
27.48000 354.862
27.65000 350.439
27.82000 363.144
27.99000 376.458
28.16000 372.951
28.33000 363.350
28.50000 348.926
28.67000 366.549
28.84000 343.512
29.01000 361.467
29.18000 359.670
29.35000 357.856
29.52000 365.271
29.69000 363.570
29.86000 362.113
30.03000 387.657
30.20000 382.024
30.37000 369.132
30.54000 377.646
30.71000 352.782
30.88000 412.688
31.05000 505.560
31.22000 861.937
31.39000 1245.047
31.56000 833.446
31.73000 453.308
31.90000 384.039
32.07000 333.077
32.24000 324.918
32.41000 343.901
32.58000 314.453
32.75000 321.338
32.92000 311.196
33.09000 331.149
33.26000 293.070
33.43000 308.143
33.60000 296.689
33.77000 317.624
33.94000 311.354
34.11000 337.782
34.28000 363.850
34.45000 353.762
34.62000 325.792
34.79000 312.841
34.96000 290.004
35.13000 282.932
35.30000 274.503
35.47000 275.126
35.64000 256.890
35.81000 255.207
35.98000 274.116
36.15000 256.754
36.32000 268.369
36.49000 254.483
36.66000 260.724
36.83000 256.460
37.00000 281.596
37.17000 269.860
37.34000 252.572
37.51000 243.451
37.68000 257.303
37.85000 238.893
38.02000 257.590
38.19000 262.862
38.36000 306.812
38.53000 577.332
38.70000 1014.846
38.87000 724.120
39.04000 345.048
39.21000 235.563
39.38000 235.583
39.55000 222.921
39.72000 231.568
39.89000 231.097
40.06000 230.425
40.23000 228.880
40.40000 234.497
40.57000 233.474
40.74000 211.077
40.91000 215.766
41.08000 211.837
41.25000 210.452
41.42000 205.845
41.59000 212.143
41.76000 205.178
41.93000 205.549
42.10000 215.178
42.27000 214.456
42.44000 229.854
42.61000 212.853
42.78000 208.261
42.95000 199.745
43.12000 197.361
43.29000 196.325
43.46000 190.727
43.63000 195.096
43.80000 197.434
43.97000 193.240
44.14000 200.749
44.31000 197.410
44.48000 209.589
44.65000 214.136
44.82000 234.338
44.99000 235.131
45.16000 227.068
45.33000 233.442
45.50000 211.036
45.67000 199.209
45.84000 176.505
46.01000 175.173
46.18000 175.096
46.35000 186.489
46.52000 176.942
46.69000 162.288
46.86000 176.588
47.03000 174.070
47.20000 160.235
47.37000 156.445
47.54000 166.226
47.71000 166.445
47.88000 160.700
48.05000 167.218
48.22000 160.016
48.39000 153.048
48.56000 150.617
48.73000 158.471
48.90000 157.066
49.07000 163.312
49.24000 152.669
49.41000 158.066
49.58000 152.203
49.75000 152.045
49.92000 133.920
50.09000 148.397
50.26000 155.362
50.43000 144.541
50.60000 157.098
50.77000 158.912
50.94000 160.560
51.11000 133.943
51.28000 153.029
51.45000 144.283
51.62000 138.209
51.79000 142.546
51.96000 139.974
52.13000 140.732
52.30000 139.994
52.47000 138.934
52.64000 132.223
52.81000 126.600
52.98000 145.686
53.15000 144.148
53.32000 145.995
53.49000 145.835
53.66000 148.358
53.83000 154.920
54.00000 139.654
54.17000 135.737
54.34000 134.090
54.51000 137.664
54.68000 135.819
54.85000 142.539
55.02000 149.184
55.19000 161.896
55.36000 171.817
55.53000 227.502
55.70000 347.359
55.87000 508.711
56.04000 548.274
56.21000 335.669
56.38000 200.486
56.55000 154.440
56.72000 148.260
56.89000 130.822
57.06000 118.446
57.23000 137.685
57.40000 113.051
57.57000 130.235
57.74000 122.295
57.91000 122.324
58.08000 116.823
58.25000 121.613
58.42000 113.645
58.59000 119.174
58.76000 116.324
58.93000 127.004
59.10000 110.181
59.27000 108.107
59.44000 117.180
59.61000 120.832
59.78000 117.365
59.95000 121.945
60.12000 117.277
60.29000 115.518
60.46000 115.791
60.63000 118.083
60.80000 121.925
60.97000 116.772
61.14000 121.894
61.31000 126.619
61.48000 123.558
61.65000 277.256
61.82000 197.436
61.99000 135.815
62.16000 120.384
62.33000 134.164
62.50000 124.317
62.67000 130.036
62.84000 148.415
63.01000 137.188
63.18000 138.214
63.35000 136.089
63.52000 134.561
63.69000 143.627
63.86000 147.623
64.03000 141.504
64.20000 151.876
64.37000 152.176
64.54000 162.902
64.71000 164.987
64.88000 179.015
65.05000 182.946
65.22000 217.371
65.39000 252.657
65.56000 320.293
65.73000 953.621
65.90000 1850.360
66.07000 492.246
66.24000 369.850
66.41000 597.659
66.58000 407.311
66.75000 339.937
66.92000 354.654
67.09000 380.814
67.26000 386.413
67.43000 398.229
67.60000 419.360
67.77000 455.861
67.94000 470.570
68.11000 501.353
68.28000 552.511
68.45000 652.404
68.62000 857.364
68.79000 1530.307
68.96000 8276.874
69.13000 42428.262
69.30000 23215.984
69.47000 5928.562
69.64000 899.705
69.81000 621.225
69.98000 499.843
70.00000 492.340

File: BTO_Mapping_Theta2Theta_08-10-2025_001_11_13-383_14-863.xy
20.00000 479.276
20.17000 466.118
20.34000 487.994
20.51000 489.606
20.68000 476.815
20.85000 469.222
21.02000 471.868
21.19000 476.562
21.36000 462.549
21.53000 461.351
21.70000 492.077
21.87000 477.216
22.04000 507.993
22.21000 506.442
22.38000 472.897
22.55000 475.455
22.72000 441.960
22.89000 421.747
23.06000 445.158
23.23000 441.202
23.40000 435.410
23.57000 447.544
23.74000 487.683
23.91000 528.526
24.08000 521.055
24.25000 457.111
24.42000 438.177
24.59000 433.636
24.76000 407.560
24.93000 405.629
25.10000 399.812
25.27000 409.789
25.44000 401.824
25.61000 409.626
25.78000 385.769
25.95000 393.562
26.12000 382.615
26.29000 387.809
26.46000 375.105
26.63000 402.938
26.80000 382.400
26.97000 397.576
27.14000 379.748
27.31000 369.512
27.48000 369.297
27.65000 373.136
27.82000 364.097
27.99000 365.538
28.16000 375.131
28.33000 349.510
28.50000 364.735
28.67000 355.511
28.84000 360.751
29.01000 367.802
29.18000 340.831
29.35000 360.987
29.52000 359.696
29.69000 365.437
29.86000 376.003
30.03000 390.835
30.20000 382.825
30.37000 360.421
30.54000 353.707
30.71000 390.322
30.88000 404.429
31.05000 503.936
31.22000 843.040
31.39000 1108.565
31.56000 785.883
31.73000 478.554
31.90000 373.057
32.07000 359.453
32.24000 352.751
32.41000 335.079
32.58000 335.776
32.75000 313.554
32.92000 316.099
33.09000 295.080
33.26000 299.533
33.43000 301.692
33.60000 302.506
33.77000 309.578
33.94000 315.450
34.11000 334.699
34.28000 353.688
34.45000 341.206
34.62000 309.031
34.79000 289.728
34.96000 294.530
35.13000 262.649
35.30000 273.706
35.47000 264.875
35.64000 266.931
35.81000 262.083
35.98000 262.459
36.15000 253.999
36.32000 260.434
36.49000 252.026
36.66000 259.948
36.83000 263.399
37.00000 281.103
37.17000 268.526
37.34000 255.666
37.51000 253.553
37.68000 246.549
37.85000 266.753
38.02000 260.136
38.19000 257.066
38.36000 315.954
38.53000 528.413
38.70000 837.994
38.87000 592.794
39.04000 309.563
39.21000 247.666
39.38000 238.941
39.55000 225.642
39.72000 225.081
39.89000 230.092
40.06000 220.803
40.23000 230.894
40.40000 222.714
40.57000 222.000
40.74000 221.543
40.91000 207.639
41.08000 220.101
41.25000 211.025
41.42000 205.701
41.59000 203.968
41.76000 207.884
41.93000 218.687
42.10000 225.872
42.27000 218.953
42.44000 219.675
42.61000 224.336
42.78000 214.980
42.95000 200.782
43.12000 208.091
43.29000 198.917
43.46000 188.186
43.63000 201.134
43.80000 189.501
43.97000 191.082
44.14000 191.278
44.31000 199.300
44.48000 208.408
44.65000 209.147
44.82000 227.871
44.99000 233.790
45.16000 246.976
45.33000 221.707
45.50000 203.802
45.67000 204.028
45.84000 190.781
46.01000 176.406
46.18000 173.922
46.35000 179.743
46.52000 177.542
46.69000 178.234
46.86000 178.961
47.03000 169.643
47.20000 165.257
47.37000 164.054
47.54000 160.591
47.71000 155.842
47.88000 150.428
48.05000 166.661
48.22000 156.070
48.39000 151.364
48.56000 165.940
48.73000 166.243
48.90000 159.676
49.07000 155.836
49.24000 157.216
49.41000 151.702
49.58000 154.375
49.75000 155.759
49.92000 161.148
50.09000 149.788
50.26000 157.362
50.43000 167.608
50.60000 156.875
50.77000 167.418
50.94000 155.857
51.11000 154.643
51.28000 143.755
51.45000 140.529
51.62000 145.241
51.79000 135.999
51.96000 140.224
52.13000 136.546
52.30000 138.633
52.47000 139.432
52.64000 146.830
52.81000 137.075
52.98000 140.429
53.15000 156.225
53.32000 152.573
53.49000 147.718
53.66000 139.064
53.83000 143.727
54.00000 150.144
54.17000 137.289
54.34000 145.183
54.51000 141.517
54.68000 142.187
54.85000 147.025
55.02000 156.132
55.19000 156.839
55.36000 162.188
55.53000 202.066
55.70000 298.600
55.87000 420.690
56.04000 429.603
56.21000 283.048
56.38000 194.705
56.55000 157.837
56.72000 142.559
56.89000 136.536
57.06000 118.745
57.23000 125.941
57.40000 122.287
57.57000 120.430
57.74000 114.564
57.91000 117.150
58.08000 116.177
58.25000 121.524
58.42000 121.451
58.59000 130.202
58.76000 113.567
58.93000 117.400
59.10000 127.396
59.27000 123.622
59.44000 120.215
59.61000 122.782
59.78000 127.981
59.95000 119.111
60.12000 109.582
60.29000 125.749
60.46000 131.451
60.63000 125.767
60.80000 122.427
60.97000 120.907
61.14000 130.989
61.31000 133.593
61.48000 129.918
61.65000 289.935
61.82000 198.058
61.99000 137.828
62.16000 131.339
62.33000 125.689
62.50000 137.304
62.67000 135.174
62.84000 139.350
63.01000 130.951
63.18000 132.010
63.35000 131.981
63.52000 132.847
63.69000 140.082
63.86000 139.140
64.03000 142.435
64.20000 144.746
64.37000 144.948
64.54000 165.288
64.71000 175.361
64.88000 182.705
65.05000 202.013
65.22000 219.144
65.39000 248.115
65.56000 315.571
65.73000 1006.925
65.90000 1886.268
66.07000 477.003
66.24000 388.466
66.41000 629.908
66.58000 402.787
66.75000 358.372
66.92000 357.859
67.09000 383.257
67.26000 396.912
67.43000 424.004
67.60000 437.563
67.77000 464.114
67.94000 488.421
68.11000 521.787
68.28000 579.085
68.45000 647.776
68.62000 894.439
68.79000 1611.454
68.96000 9169.495
69.13000 44065.344
69.30000 23537.250
69.47000 5755.592
69.64000 891.279
69.81000 627.191
69.98000 493.054
70.00000 487.929

File: BTO_Mapping_Theta2Theta_08-10-2025_001_12_20-074_22-294.xy
20.00000 480.811
20.17000 478.021
20.34000 463.784
20.51000 457.281
20.68000 469.767
20.85000 446.531
21.02000 454.499
21.19000 466.554
21.36000 478.851
21.53000 453.227
21.70000 456.953
21.87000 481.196
22.04000 506.565
22.21000 507.839
22.38000 475.957
22.55000 457.550
22.72000 457.249
22.89000 456.270
23.06000 442.873
23.23000 464.905
23.40000 437.653
23.57000 438.804
23.74000 477.822
23.91000 540.750
24.08000 522.975
24.25000 498.897
24.42000 424.236
24.59000 443.429
24.76000 411.398
24.93000 416.987
25.10000 412.804
25.27000 401.711
25.44000 401.696
25.61000 403.532
25.78000 420.444
25.95000 392.908
26.12000 393.934
26.29000 393.144
26.46000 384.057
26.63000 379.390
26.80000 378.336
26.97000 385.418
27.14000 375.817
27.31000 375.326
27.48000 381.866
27.65000 386.575
27.82000 378.694
27.99000 354.144
28.16000 367.775
28.33000 356.347
28.50000 359.464
28.67000 356.236
28.84000 367.356
29.01000 362.993
29.18000 357.900
29.35000 361.946
29.52000 373.304
29.69000 361.555
29.86000 395.348
30.03000 383.949
30.20000 363.856
30.37000 362.559
30.54000 371.962
30.71000 388.221
30.88000 417.653
31.05000 495.322
31.22000 802.898
31.39000 1036.589
31.56000 740.569
31.73000 478.975
31.90000 372.354
32.07000 353.768
32.24000 370.473
32.41000 334.738
32.58000 337.821
32.75000 321.352
32.92000 327.661
33.09000 306.486
33.26000 304.564
33.43000 304.810
33.60000 291.322
33.77000 304.277
33.94000 298.453
34.11000 333.998
34.28000 331.657
34.45000 337.301
34.62000 306.969
34.79000 271.250
34.96000 297.846
35.13000 269.100
35.30000 275.318
35.47000 269.762
35.64000 267.289
35.81000 272.185
35.98000 259.917
36.15000 265.606
36.32000 252.095
36.49000 259.974
36.66000 262.637
36.83000 268.596
37.00000 269.096
37.17000 249.716
37.34000 260.487
37.51000 260.795
37.68000 248.217
37.85000 260.406
38.02000 271.518
38.19000 274.503
38.36000 310.001
38.53000 493.270
38.70000 727.469
38.87000 495.070
39.04000 300.414
39.21000 250.540
39.38000 242.264
39.55000 225.575
39.72000 243.857
39.89000 237.467
40.06000 227.501
40.23000 219.668
40.40000 224.640
40.57000 215.378
40.74000 212.876
40.91000 201.507
41.08000 200.639
41.25000 215.681
41.42000 215.668
41.59000 221.081
41.76000 214.023
41.93000 219.001
42.10000 214.021
42.27000 231.519
42.44000 216.678
42.61000 211.712
42.78000 211.444
42.95000 200.977
43.12000 204.338
43.29000 191.380
43.46000 195.416
43.63000 192.659
43.80000 191.887
43.97000 201.458
44.14000 200.943
44.31000 209.055
44.48000 209.066
44.65000 211.724
44.82000 226.254
44.99000 228.396
45.16000 240.074
45.33000 218.030
45.50000 188.213
45.67000 208.066
45.84000 192.321
46.01000 177.995
46.18000 189.994
46.35000 180.976
46.52000 166.098
46.69000 184.352
46.86000 172.998
47.03000 171.325
47.20000 167.103
47.37000 158.464
47.54000 173.663
47.71000 162.003
47.88000 152.293
48.05000 166.690
48.22000 166.452
48.39000 167.845
48.56000 164.390
48.73000 155.740
48.90000 159.053
49.07000 157.747
49.24000 152.344
49.41000 154.604
49.58000 145.561
49.75000 153.733
49.92000 160.493
50.09000 151.812
50.26000 159.467
50.43000 161.493
50.60000 164.983
50.77000 174.685
50.94000 148.682
51.11000 145.545
51.28000 140.841
51.45000 146.867
51.62000 135.630
51.79000 142.209
51.96000 143.285
52.13000 148.647
52.30000 142.493
52.47000 135.274
52.64000 145.130
52.81000 136.517
52.98000 132.244
53.15000 145.722
53.32000 148.788
53.49000 144.449
53.66000 142.968
53.83000 141.467
54.00000 143.211
54.17000 132.055
54.34000 153.149
54.51000 140.634
54.68000 130.748
54.85000 139.725
55.02000 145.966
55.19000 148.374
55.36000 160.422
55.53000 203.632
55.70000 268.920
55.87000 350.745
56.04000 344.233
56.21000 238.199
56.38000 178.650
56.55000 156.943
56.72000 149.144
56.89000 132.806
57.06000 133.785
57.23000 131.563
57.40000 130.870
57.57000 122.573
57.74000 122.972
57.91000 126.899
58.08000 119.926
58.25000 121.060
58.42000 121.566
58.59000 115.514
58.76000 129.856
58.93000 114.045
59.10000 118.653
59.27000 119.155
59.44000 122.353
59.61000 121.377
59.78000 114.930
59.95000 113.607
60.12000 119.383
60.29000 114.513
60.46000 113.205
60.63000 125.618
60.80000 123.118
60.97000 125.763
61.14000 123.918
61.31000 136.052
61.48000 139.077
61.65000 286.752
61.82000 189.024
61.99000 130.128
62.16000 135.546
62.33000 125.170
62.50000 121.335
62.67000 136.177
62.84000 129.563
63.01000 127.809
63.18000 149.578
63.35000 130.567
63.52000 139.133
63.69000 138.483
63.86000 143.612
64.03000 142.761
64.20000 150.004
64.37000 159.373
64.54000 157.826
64.71000 167.787
64.88000 174.741
65.05000 202.152
65.22000 219.135
65.39000 247.657
65.56000 317.983
65.73000 1053.582
65.90000 1922.400
66.07000 474.952
66.24000 384.090
66.41000 612.621
66.58000 409.592
66.75000 360.775
66.92000 347.155
67.09000 368.023
67.26000 413.807
67.43000 422.445
67.60000 436.361
67.77000 438.436
67.94000 500.989
68.11000 531.470
68.28000 586.464
68.45000 669.202
68.62000 898.463
68.79000 1649.474
68.96000 9943.278
69.13000 44638.648
69.30000 23572.822
69.47000 5510.192
69.64000 914.279
69.81000 622.403
69.98000 492.865
70.00000 490.742