Folder: Master-Thesis/XRD/XRD/08-10-2025 Dep 7/XY Data (part 3)

File: BTO_Mapping_Theta2Theta_08-10-2025_001_15_6-180_19-021.xy
20.00000 491.961
20.17000 471.842
20.34000 470.588
20.51000 458.422
20.68000 469.693
20.85000 455.059
21.02000 465.674
21.19000 473.349
21.36000 454.599
21.53000 458.601
21.70000 481.605
21.87000 471.221
22.04000 480.673
22.21000 507.216
22.38000 469.424
22.55000 451.422
22.72000 443.627
22.89000 451.531
23.06000 453.037
23.23000 436.058
23.40000 441.794
23.57000 447.400
23.74000 473.016
23.91000 518.948
24.08000 517.803
24.25000 471.539
24.42000 446.931
24.59000 418.269
24.76000 416.409
24.93000 416.605
25.10000 398.698
25.27000 400.485
25.44000 391.797
25.61000 390.060
25.78000 388.883
25.95000 375.695
26.12000 408.595
26.29000 381.940
26.46000 386.402
26.63000 382.963
26.80000 384.033
26.97000 380.601
27.14000 381.234
27.31000 367.178
27.48000 374.093
27.65000 376.534
27.82000 372.044
27.99000 374.344
28.16000 361.129
28.33000 355.290
28.50000 375.530
28.67000 351.526
28.84000 341.725
29.01000 357.211
29.18000 353.798
29.35000 346.721
29.52000 347.543
29.69000 369.953
29.86000 387.553
30.03000 395.973
30.20000 380.309
30.37000 382.461
30.54000 364.667
30.71000 392.968
30.88000 412.894
31.05000 506.440
31.22000 868.232
31.39000 1236.076
31.56000 833.309
31.73000 481.289
31.90000 360.855
32.07000 365.405
32.24000 353.722
32.41000 322.800
32.58000 320.665
32.75000 322.061
32.92000 322.362
33.09000 297.904
33.26000 305.957
33.43000 304.390
33.60000 288.009
33.77000 299.998
33.94000 309.647
34.11000 331.654
34.28000 338.371
34.45000 346.764
34.62000 328.091
34.79000 281.882
34.96000 266.907
35.13000 273.762
35.30000 266.154
35.47000 264.315
35.64000 259.666
35.81000 265.415
35.98000 258.652
36.15000 254.391
36.32000 254.397
36.49000 258.028
36.66000 263.921
36.83000 272.388
37.00000 276.194
37.17000 275.134
37.34000 258.639
37.51000 256.553
37.68000 237.882
37.85000 243.216
38.02000 249.279
38.19000 259.474
38.36000 300.788
38.53000 524.264
38.70000 916.608
38.87000 658.654
39.04000 322.182
39.21000 247.409
39.38000 235.757
39.55000 231.614
39.72000 230.463
39.89000 232.614
40.06000 235.302
40.23000 232.068
40.40000 220.774
40.57000 221.779
40.74000 215.862
40.91000 206.925
41.08000 192.260
41.25000 204.539
41.42000 207.828
41.59000 216.801
41.76000 220.052
41.93000 219.125
42.10000 229.741
42.27000 211.569
42.44000 215.195
42.61000 208.126
42.78000 201.906
42.95000 205.954
43.12000 194.738
43.29000 198.125
43.46000 193.676
43.63000 186.212
43.80000 191.954
43.97000 183.244
44.14000 196.175
44.31000 194.834
44.48000 209.855
44.65000 219.265
44.82000 225.100
44.99000 233.056
45.16000 231.453
45.33000 215.933
45.50000 214.878
45.67000 206.445
45.84000 186.009
46.01000 176.988
46.18000 178.359
46.35000 177.242
46.52000 165.843
46.69000 178.522
46.86000 178.102
47.03000 165.629
47.20000 167.016
47.37000 173.092
47.54000 168.245
47.71000 157.239
47.88000 161.519
48.05000 160.468
48.22000 169.466
48.39000 168.385
48.56000 152.776
48.73000 166.203
48.90000 149.444
49.07000 152.240
49.24000 151.749
49.41000 163.941
49.58000 166.309
49.75000 144.897
49.92000 152.582
50.09000 147.855
50.26000 162.690
50.43000 152.981
50.60000 162.908
50.77000 156.117
50.94000 154.643
51.11000 150.121
51.28000 155.757
51.45000 140.939
51.62000 144.665
51.79000 141.853
51.96000 138.999
52.13000 139.166
52.30000 149.809
52.47000 142.060
52.64000 132.702
52.81000 139.325
52.98000 139.154
53.15000 144.561
53.32000 149.702
53.49000 150.343
53.66000 142.824
53.83000 138.603
54.00000 151.031
54.17000 137.160
54.34000 138.072
54.51000 150.193
54.68000 142.632
54.85000 136.259
55.02000 154.125
55.19000 162.715
55.36000 167.431
55.53000 208.006
55.70000 313.389
55.87000 485.293
56.04000 479.561
56.21000 314.031
56.38000 196.540
56.55000 149.045
56.72000 136.211
56.89000 138.006
57.06000 127.644
57.23000 132.986
57.40000 124.956
57.57000 134.148
57.74000 133.139
57.91000 124.525
58.08000 138.371
58.25000 120.377
58.42000 121.070
58.59000 115.669
58.76000 105.913
58.93000 122.824
59.10000 115.208
59.27000 120.000
59.44000 108.533
59.61000 127.204
59.78000 122.605
59.95000 116.730
60.12000 132.707
60.29000 115.587
60.46000 113.909
60.63000 117.379
60.80000 112.098
60.97000 121.271
61.14000 126.462
61.31000 132.195
61.48000 139.496
61.65000 275.986
61.82000 198.747
61.99000 139.010
62.16000 126.084
62.33000 128.276
62.50000 128.117
62.67000 135.148
62.84000 134.396
63.01000 127.453
63.18000 129.529
63.35000 128.024
63.52000 128.515
63.69000 148.039
63.86000 137.899
64.03000 145.274
64.20000 150.675
64.37000 155.107
64.54000 158.070
64.71000 166.215
64.88000 184.565
65.05000 202.192
65.22000 218.697
65.39000 256.428
65.56000 321.722
65.73000 941.065
65.90000 1964.655
66.07000 515.859
66.24000 362.501
66.41000 598.651
66.58000 406.674
66.75000 344.760
66.92000 344.476
67.09000 372.714
67.26000 390.542
67.43000 388.317
67.60000 435.621
67.77000 436.075
67.94000 483.644
68.11000 512.817
68.28000 555.082
68.45000 645.815
68.62000 865.719
68.79000 1552.568
68.96000 7880.438
69.13000 42586.758
69.30000 23849.758
69.47000 6286.677
69.64000 927.574
69.81000 622.030
69.98000 498.068
70.00000 497.385

File: BTO_Mapping_Theta2Theta_08-10-2025_001_18_-1-045_9-945.xy
20.00000 487.947
20.17000 476.770
20.34000 482.486
20.51000 460.370
20.68000 455.077
20.85000 473.427
21.02000 481.364
21.19000 469.540
21.36000 489.171
21.53000 476.327
21.70000 464.546
21.87000 499.938
22.04000 534.856
22.21000 516.900
22.38000 476.634
22.55000 450.020
22.72000 453.699
22.89000 448.004
23.06000 434.634
23.23000 441.808
23.40000 441.017
23.57000 432.273
23.74000 448.344
23.91000 488.746
24.08000 478.688
24.25000 459.053
24.42000 443.034
24.59000 423.962
24.76000 409.178
24.93000 396.177
25.10000 399.483
25.27000 401.532
25.44000 390.543
25.61000 396.628
25.78000 378.502
25.95000 393.334
26.12000 390.693
26.29000 382.156
26.46000 376.232
26.63000 381.542
26.80000 380.500
26.97000 384.438
27.14000 373.623
27.31000 379.237
27.48000 369.563
27.65000 382.470
27.82000 355.791
27.99000 357.232
28.16000 350.196
28.33000 352.726
28.50000 369.549
28.67000 357.564
28.84000 352.731
29.01000 352.285
29.18000 329.346
29.35000 350.496
29.52000 339.917
29.69000 363.845
29.86000 364.682
30.03000 379.152
30.20000 371.968
30.37000 368.946
30.54000 364.092
30.71000 360.109
30.88000 364.429
31.05000 468.031
31.22000 767.948
31.39000 1123.069
31.56000 800.779
31.73000 457.815
31.90000 358.977
32.07000 349.991
32.24000 348.397
32.41000 334.362
32.58000 312.965
32.75000 327.326
32.92000 325.415
33.09000 300.279
33.26000 296.715
33.43000 306.927
33.60000 303.604
33.77000 285.764
33.94000 306.334
34.11000 330.522
34.28000 345.468
34.45000 359.776
34.62000 329.531
34.79000 284.104
34.96000 279.512
35.13000 272.199
35.30000 266.360
35.47000 260.297
35.64000 260.104
35.81000 263.018
35.98000 256.085
36.15000 252.322
36.32000 263.444
36.49000 246.454
36.66000 255.816
36.83000 263.494
37.00000 274.282
37.17000 287.688
37.34000 252.138
37.51000 257.898
37.68000 238.917
37.85000 252.515
38.02000 264.806
38.19000 252.668
38.36000 331.447
38.53000 631.809
38.70000 1111.437
38.87000 802.699
39.04000 347.334
39.21000 249.469
39.38000 231.969
39.55000 223.824
39.72000 246.209
39.89000 243.967
40.06000 231.094
40.23000 212.729
40.40000 221.401
40.57000 213.501
40.74000 211.668
40.91000 209.567
41.08000 220.008
41.25000 218.373
41.42000 209.684
41.59000 208.581
41.76000 203.258
41.93000 202.043
42.10000 212.478
42.27000 210.669
42.44000 209.742
42.61000 205.785
42.78000 203.045
42.95000 208.110
43.12000 202.345
43.29000 196.187
43.46000 208.124
43.63000 201.494
43.80000 202.655
43.97000 195.332
44.14000 196.906
44.31000 188.080
44.48000 210.432
44.65000 232.199
44.82000 243.780
44.99000 261.738
45.16000 275.757
45.33000 230.399
45.50000 219.237
45.67000 197.884
45.84000 188.262
46.01000 172.095
46.18000 182.877
46.35000 184.132
46.52000 193.151
46.69000 188.974
46.86000 175.744
47.03000 167.030
47.20000 162.197
47.37000 164.686
47.54000 173.713
47.71000 161.163
47.88000 149.933
48.05000 158.818
48.22000 168.806
48.39000 144.178
48.56000 161.951
48.73000 158.562
48.90000 155.048
49.07000 160.943
49.24000 159.837
49.41000 152.401
49.58000 134.902
49.75000 152.417
49.92000 151.236
50.09000 148.891
50.26000 157.491
50.43000 152.044
50.60000 153.383
50.77000 166.281
50.94000 150.273
51.11000 156.567
51.28000 154.382
51.45000 148.719
51.62000 146.392
51.79000 143.374
51.96000 137.988
52.13000 133.356
52.30000 134.158
52.47000 128.267
52.64000 137.348
52.81000 138.307
52.98000 147.823
53.15000 155.331
53.32000 159.218
53.49000 158.810
53.66000 145.018
53.83000 137.148
54.00000 147.212
54.17000 135.043
54.34000 134.641
54.51000 136.271
54.68000 138.396
54.85000 139.293
55.02000 150.688
55.19000 152.893
55.36000 174.958
55.53000 220.601
55.70000 385.083
55.87000 605.526
56.04000 629.828
56.21000 361.303
56.38000 198.894
56.55000 156.733
56.72000 135.500
56.89000 136.069
57.06000 132.662
57.23000 120.033
57.40000 136.520
57.57000 131.014
57.74000 127.521
57.91000 122.455
58.08000 131.913
58.25000 132.199
58.42000 128.438
58.59000 120.920
58.76000 116.291
58.93000 125.167
59.10000 114.130
59.27000 119.938
59.44000 116.125
59.61000 121.471
59.78000 113.901
59.95000 107.099
60.12000 110.670
60.29000 119.701
60.46000 106.433
60.63000 117.286
60.80000 115.756
60.97000 121.694
61.14000 127.831
61.31000 125.374
61.48000 122.313
61.65000 290.965
61.82000 193.815
61.99000 139.063
62.16000 130.649
62.33000 133.399
62.50000 124.134
62.67000 122.500
62.84000 127.924
63.01000 122.741
63.18000 134.582
63.35000 132.578
63.52000 129.682
63.69000 129.902
63.86000 139.202
64.03000 139.361
64.20000 150.232
64.37000 155.172
64.54000 159.703
64.71000 159.426
64.88000 169.467
65.05000 181.381
65.22000 203.883
65.39000 244.740
65.56000 312.428
65.73000 889.378
65.90000 1890.711
66.07000 505.599
66.24000 361.087
66.41000 593.282
66.58000 416.484
66.75000 354.326
66.92000 339.595
67.09000 369.279
67.26000 390.007
67.43000 393.530
67.60000 426.314
67.77000 432.164
67.94000 471.789
68.11000 502.940
68.28000 541.129
68.45000 638.395
68.62000 853.598
68.79000 1566.691
68.96000 7584.057
69.13000 42048.785
69.30000 23761.920
69.47000 6413.021
69.64000 906.880
69.81000 614.012
69.98000 497.732
70.00000 489.421

File: BTO_Mapping_Theta2Theta_08-10-2025_001_19_-2-091_19-890.xy
20.00000 486.251
20.17000 452.453
20.34000 470.033
20.51000 472.843
20.68000 470.481
20.85000 454.844
21.02000 463.188
21.19000 459.291
21.36000 461.871
21.53000 459.219
21.70000 463.373
21.87000 502.780
22.04000 530.030
22.21000 530.811
22.38000 478.835
22.55000 442.017
22.72000 442.312
22.89000 453.436
23.06000 435.442
23.23000 433.573
23.40000 435.009
23.57000 448.962
23.74000 459.342
23.91000 500.268
24.08000 479.966
24.25000 465.533
24.42000 424.052
24.59000 426.001
24.76000 411.740
24.93000 412.159
25.10000 405.023
25.27000 397.927
25.44000 393.757
25.61000 398.000
25.78000 378.583
25.95000 402.028
26.12000 398.758
26.29000 393.770
26.46000 376.983
26.63000 384.308
26.80000 375.865
26.97000 366.913
27.14000 368.786
27.31000 382.604
27.48000 380.036
27.65000 372.866
27.82000 362.382
27.99000 379.247
28.16000 352.648
28.33000 356.478
28.50000 371.286
28.67000 364.935
28.84000 353.679
29.01000 346.982
29.18000 344.098
29.35000 354.384
29.52000 345.051
29.69000 357.101
29.86000 370.567
30.03000 390.972
30.20000 366.728
30.37000 366.992
30.54000 376.883
30.71000 341.906
30.88000 380.484
31.05000 477.188
31.22000 805.654
31.39000 1219.227
31.56000 889.816
31.73000 475.656
31.90000 361.855
32.07000 357.457
32.24000 333.804
32.41000 319.267
32.58000 319.074
32.75000 315.579
32.92000 317.896
33.09000 309.543
33.26000 310.171
33.43000 310.205
33.60000 308.884
33.77000 307.383
33.94000 312.024
34.11000 324.606
34.28000 351.650
34.45000 337.890
34.62000 313.938
34.79000 300.051
34.96000 275.590
35.13000 275.689
35.30000 276.648
35.47000 276.600
35.64000 264.683
35.81000 263.429
35.98000 262.348
36.15000 253.609
36.32000 263.543
36.49000 259.972
36.66000 250.249
36.83000 252.208
37.00000 271.061
37.17000 258.907
37.34000 259.340
37.51000 257.937
37.68000 263.028
37.85000 248.748
38.02000 254.131
38.19000 264.507
38.36000 300.845
38.53000 549.929
38.70000 1039.246
38.87000 768.949
39.04000 330.963
39.21000 235.922
39.38000 249.273
39.55000 240.907
39.72000 224.182
39.89000 231.136
40.06000 229.401
40.23000 229.484
40.40000 217.419
40.57000 225.372
40.74000 210.876
40.91000 204.011
41.08000 205.839
41.25000 205.934
41.42000 208.118
41.59000 208.896
41.76000 195.674
41.93000 207.347
42.10000 201.358
42.27000 226.937
42.44000 208.363
42.61000 220.739
42.78000 203.366
42.95000 202.641
43.12000 203.894
43.29000 193.979
43.46000 189.163
43.63000 185.167
43.80000 195.321
43.97000 201.008
44.14000 192.081
44.31000 199.511
44.48000 206.821
44.65000 209.517
44.82000 211.058
44.99000 241.465
45.16000 242.106
45.33000 226.110
45.50000 214.083
45.67000 201.383
45.84000 197.614
46.01000 181.792
46.18000 183.694
46.35000 179.815
46.52000 177.406
46.69000 183.984
46.86000 170.939
47.03000 171.779
47.20000 167.824
47.37000 161.863
47.54000 164.279
47.71000 164.717
47.88000 167.012
48.05000 160.547
48.22000 158.125
48.39000 160.106
48.56000 164.669
48.73000 159.348
48.90000 157.880
49.07000 158.442
49.24000 152.384
49.41000 152.652
49.58000 150.049
49.75000 159.007
49.92000 147.725
50.09000 159.973
50.26000 157.720
50.43000 158.314
50.60000 167.930
50.77000 168.249
50.94000 164.178
51.11000 152.857
51.28000 137.050
51.45000 140.913
51.62000 139.781
51.79000 140.392
51.96000 141.623
52.13000 137.213
52.30000 133.934
52.47000 138.407
52.64000 140.176
52.81000 128.097
52.98000 154.487
53.15000 152.362
53.32000 151.501
53.49000 158.655
53.66000 142.973
53.83000 146.665
54.00000 148.684
54.17000 135.691
54.34000 141.144
54.51000 139.872
54.68000 134.996
54.85000 143.792
55.02000 149.824
55.19000 140.576
55.36000 177.281
55.53000 191.511
55.70000 339.494
55.87000 577.920
56.04000 595.171
56.21000 353.941
56.38000 206.240
56.55000 142.514
56.72000 131.461
56.89000 140.280
57.06000 129.786
57.23000 122.342
57.40000 129.524
57.57000 135.672
57.74000 123.483
57.91000 135.201
58.08000 132.194
58.25000 117.194
58.42000 121.326
58.59000 110.752
58.76000 129.445
58.93000 121.307
59.10000 115.379
59.27000 123.006
59.44000 117.983
59.61000 122.735
59.78000 116.930
59.95000 112.357
60.12000 119.143
60.29000 111.669
60.46000 125.382
60.63000 118.295
60.80000 121.227
60.97000 112.322
61.14000 124.833
61.31000 118.170
61.48000 123.976
61.65000 281.529
61.82000 201.098
61.99000 138.060
62.16000 127.990
62.33000 122.118
62.50000 125.608
62.67000 135.163
62.84000 139.611
63.01000 137.251
63.18000 130.110
63.35000 128.410
63.52000 138.476
63.69000 139.630
63.86000 141.132
64.03000 140.338
64.20000 146.385
64.37000 147.306
64.54000 160.779
64.71000 171.825
64.88000 173.723
65.05000 185.177
65.22000 219.612
65.39000 269.202
65.56000 318.549
65.73000 898.587
65.90000 1894.863
66.07000 508.587
66.24000 348.087
66.41000 613.609
66.58000 402.772
66.75000 350.525
66.92000 370.728
67.09000 360.227
67.26000 386.153
67.43000 409.627
67.60000 439.121
67.77000 431.332
67.94000 463.627
68.11000 507.376
68.28000 539.205
68.45000 612.639
68.62000 837.961
68.79000 1494.338
68.96000 7147.942
69.13000 42106.559
69.30000 24359.623
69.47000 6765.774
69.64000 917.833
69.81000 625.191
69.98000 514.160
70.00000 501.579

File: BTO_Mapping_Theta2Theta_08-10-2025_001_22_-5-000_8-660.xy
20.00000 472.661
20.17000 471.327
20.34000 496.291
20.51000 457.167
20.68000 458.933
20.85000 460.563
21.02000 456.967
21.19000 470.811
21.36000 476.577
21.53000 485.753
21.70000 495.088
21.87000 489.566
22.04000 535.880
22.21000 531.499
22.38000 477.537
22.55000 462.385
22.72000 437.446
22.89000 443.463
23.06000 414.671
23.23000 438.851
23.40000 433.672
23.57000 434.049
23.74000 450.708
23.91000 490.019
24.08000 489.439
24.25000 455.952
24.42000 421.201
24.59000 410.827
24.76000 405.466
24.93000 411.477
25.10000 409.293
25.27000 402.870
25.44000 388.957
25.61000 368.847
25.78000 386.195
25.95000 389.571
26.12000 397.868
26.29000 387.866
26.46000 388.070
26.63000 376.375
26.80000 373.153
26.97000 359.516
27.14000 387.445
27.31000 377.101
27.48000 367.401
27.65000 362.714
27.82000 368.162
27.99000 346.343
28.16000 362.073
28.33000 352.789
28.50000 367.813
28.67000 360.897
28.84000 386.606
29.01000 339.728
29.18000 338.976
29.35000 349.391
29.52000 345.080
29.69000 353.292
29.86000 358.814
30.03000 377.216
30.20000 363.553
30.37000 361.613
30.54000 342.013
30.71000 353.093
30.88000 376.087
31.05000 449.112
31.22000 775.658
31.39000 1096.323
31.56000 735.517
31.73000 452.698
31.90000 378.133
32.07000 351.180
32.24000 324.924
32.41000 324.040
32.58000 314.417
32.75000 328.952
32.92000 311.000
33.09000 313.482
33.26000 290.187
33.43000 270.757
33.60000 288.309
33.77000 296.793
33.94000 305.769
34.11000 321.837
34.28000 329.628
34.45000 350.881
34.62000 321.260
34.79000 289.999
34.96000 298.128
35.13000 281.477
35.30000 273.211
35.47000 275.800
35.64000 260.154
35.81000 262.723
35.98000 262.453
36.15000 258.823
36.32000 263.201
36.49000 254.420
36.66000 270.401
36.83000 262.551
37.00000 284.763
37.17000 271.855
37.34000 273.106
37.51000 265.063
37.68000 272.722
37.85000 253.998
38.02000 252.642
38.19000 264.489
38.36000 340.846
38.53000 668.907
38.70000 1146.368
38.87000 868.465
39.04000 357.750
39.21000 253.639
39.38000 234.090
39.55000 240.301
39.72000 236.671
39.89000 221.621
40.06000 221.084
40.23000 225.807
40.40000 207.812
40.57000 229.458
40.74000 222.583
40.91000 202.224
41.08000 220.124
41.25000 211.541
41.42000 201.044
41.59000 204.317
41.76000 206.595
41.93000 207.027
42.10000 216.647
42.27000 216.776
42.44000 211.376
42.61000 206.698
42.78000 202.725
42.95000 200.218
43.12000 209.260
43.29000 199.829
43.46000 197.925
43.63000 194.985
43.80000 205.351
43.97000 187.346
44.14000 205.431
44.31000 203.412
44.48000 204.551
44.65000 220.837
44.82000 229.327
44.99000 243.660
45.16000 247.154
45.33000 244.931
45.50000 217.193
45.67000 204.969
45.84000 185.586
46.01000 186.342
46.18000 176.500
46.35000 171.685
46.52000 168.634
46.69000 175.981
46.86000 175.751
47.03000 182.077
47.20000 176.970
47.37000 160.160
47.54000 158.941
47.71000 167.630
47.88000 159.109
48.05000 161.815
48.22000 151.611
48.39000 155.245
48.56000 165.373
48.73000 152.086
48.90000 152.464
49.07000 147.435
49.24000 153.462
49.41000 154.972
49.58000 154.804
49.75000 142.949
49.92000 150.392
50.09000 146.203
50.26000 158.030
50.43000 157.398
50.60000 165.869
50.77000 169.395
50.94000 148.565
51.11000 155.074
51.28000 147.594
51.45000 147.867
51.62000 139.036
51.79000 146.422
51.96000 142.891
52.13000 139.365
52.30000 135.099
52.47000 157.186
52.64000 136.574
52.81000 142.585
52.98000 141.717
53.15000 140.662
53.32000 158.122
53.49000 153.308
53.66000 144.021
53.83000 152.648
54.00000 137.436
54.17000 144.406
54.34000 138.906
54.51000 135.089
54.68000 139.971
54.85000 138.808
55.02000 148.230
55.19000 154.396
55.36000 171.211
55.53000 233.319
55.70000 393.287
55.87000 661.084
56.04000 646.457
56.21000 377.009
56.38000 213.522
56.55000 154.858
56.72000 137.191
56.89000 127.362
57.06000 129.546
57.23000 133.675
57.40000 134.164
57.57000 135.727
57.74000 125.952
57.91000 123.912
58.08000 121.191
58.25000 121.574
58.42000 114.585
58.59000 115.967
58.76000 117.904
58.93000 106.666
59.10000 121.416
59.27000 116.036
59.44000 115.798
59.61000 122.550
59.78000 118.598
59.95000 119.908
60.12000 133.079
60.29000 123.899
60.46000 107.668
60.63000 119.555
60.80000 122.458
60.97000 116.111
61.14000 129.553
61.31000 127.449
61.48000 120.234
61.65000 295.880
61.82000 217.987
61.99000 122.701
62.16000 124.937
62.33000 124.458
62.50000 131.508
62.67000 127.304
62.84000 128.260
63.01000 129.859
63.18000 135.277
63.35000 132.561
63.52000 134.396
63.69000 141.965
63.86000 135.819
64.03000 149.403
64.20000 148.038
64.37000 143.522
64.54000 159.452
64.71000 157.745
64.88000 175.414
65.05000 175.385
65.22000 212.008
65.39000 256.787
65.56000 316.686
65.73000 905.331
65.90000 1916.390
66.07000 530.573
66.24000 387.443
66.41000 619.297
66.58000 431.617
66.75000 354.420
66.92000 348.859
67.09000 355.785
67.26000 379.600
67.43000 397.222
67.60000 428.246
67.77000 458.206
67.94000 484.011
68.11000 518.018
68.28000 561.628
68.45000 623.806
68.62000 880.668
68.79000 1542.110
68.96000 7497.869
69.13000 43546.660
69.30000 24899.021
69.47000 6891.208
69.64000 919.116
69.81000 615.673
69.98000 502.047
70.00000 505.323

File: BTO_Mapping_Theta2Theta_08-10-2025_001_23_-10-000_17-321.xy
20.00000 500.496
20.17000 454.654
20.34000 481.132
20.51000 457.244
20.68000 447.651
20.85000 473.738
21.02000 447.834
21.19000 459.292
21.36000 464.887
21.53000 456.068
21.70000 493.835
21.87000 488.610
22.04000 545.699
22.21000 537.702
22.38000 468.710
22.55000 451.812
22.72000 448.004
22.89000 451.080
23.06000 442.106
23.23000 433.623
23.40000 441.148
23.57000 425.463
23.74000 434.678
23.91000 493.907
24.08000 484.259
24.25000 458.355
24.42000 450.477
24.59000 414.590
24.76000 409.826
24.93000 400.974
25.10000 392.359
25.27000 398.591
25.44000 380.125
25.61000 372.976
25.78000 372.284
25.95000 411.579
26.12000 376.462
26.29000 390.608
26.46000 386.554
26.63000 371.866
26.80000 356.597
26.97000 387.165
27.14000 376.974
27.31000 370.328
27.48000 363.587
27.65000 389.286
27.82000 378.935
27.99000 353.358
28.16000 361.709
28.33000 358.295
28.50000 350.920
28.67000 361.317
28.84000 346.100
29.01000 347.792
29.18000 343.342
29.35000 353.049
29.52000 346.037
29.69000 350.469
29.86000 362.679
30.03000 381.708
30.20000 359.255
30.37000 376.050
30.54000 368.700
30.71000 339.752
30.88000 375.824
31.05000 444.497
31.22000 749.549
31.39000 1074.455
31.56000 796.992
31.73000 430.942
31.90000 351.954
32.07000 338.737
32.24000 313.568
32.41000 314.013
32.58000 314.267
32.75000 313.253
32.92000 300.024
33.09000 295.546
33.26000 291.846
33.43000 284.643
33.60000 274.688
33.77000 289.412
33.94000 300.719
34.11000 317.192
34.28000 352.757
34.45000 332.797
34.62000 326.620
34.79000 301.304
34.96000 285.880
35.13000 270.388
35.30000 275.261
35.47000 263.909
35.64000 269.657
35.81000 265.045
35.98000 267.955
36.15000 245.479
36.32000 264.279
36.49000 254.583
36.66000 257.139
36.83000 274.701
37.00000 291.279
37.17000 279.087
37.34000 254.690
37.51000 247.073
37.68000 249.946
37.85000 259.718
38.02000 260.180
38.19000 263.977
38.36000 331.731
38.53000 652.221
38.70000 1117.868
38.87000 853.805
39.04000 367.489
39.21000 244.306
39.38000 223.728
39.55000 245.279
39.72000 229.084
39.89000 239.945
40.06000 230.935
40.23000 229.620
40.40000 216.305
40.57000 211.634
40.74000 219.798
40.91000 197.704
41.08000 216.557
41.25000 214.229
41.42000 198.806
41.59000 206.935
41.76000 214.131
41.93000 217.498
42.10000 206.963
42.27000 209.016
42.44000 206.708
42.61000 213.207
42.78000 200.505
42.95000 208.704
43.12000 196.485
43.29000 198.277
43.46000 187.097
43.63000 191.799
43.80000 186.031
43.97000 188.134
44.14000 184.144
44.31000 201.575
44.48000 210.384
44.65000 230.806
44.82000 233.049
44.99000 252.512
45.16000 242.703
45.33000 242.618
45.50000 209.152
45.67000 214.903
45.84000 209.815
46.01000 184.238
46.18000 181.746
46.35000 163.638
46.52000 191.366
46.69000 187.133
46.86000 165.717
47.03000 174.571
47.20000 160.908
47.37000 160.363
47.54000 162.755
47.71000 162.275
47.88000 155.365
48.05000 165.172
48.22000 143.852
48.39000 165.093
48.56000 158.028
48.73000 152.377
48.90000 162.373
49.07000 157.600
49.24000 155.393
49.41000 150.101
49.58000 148.272
49.75000 150.863
49.92000 146.896
50.09000 152.422
50.26000 152.692
50.43000 162.683
50.60000 165.239
50.77000 169.431
50.94000 167.172
51.11000 149.698
51.28000 144.207
51.45000 146.852
51.62000 146.245
51.79000 144.335
51.96000 139.983
52.13000 134.028
52.30000 137.186
52.47000 133.933
52.64000 140.533
52.81000 149.671
52.98000 143.181
53.15000 152.517
53.32000 166.400
53.49000 161.058
53.66000 146.493
53.83000 146.631
54.00000 134.361
54.17000 141.595
54.34000 136.617
54.51000 137.849
54.68000 153.207
54.85000 144.941
55.02000 152.402
55.19000 147.498
55.36000 172.566
55.53000 228.015
55.70000 381.520
55.87000 631.672
56.04000 629.619
56.21000 396.941
56.38000 214.046
56.55000 152.049
56.72000 136.583
56.89000 133.994
57.06000 131.686
57.23000 126.939
57.40000 124.854
57.57000 127.087
57.74000 130.058
57.91000 127.377
58.08000 130.597
58.25000 120.861
58.42000 115.889
58.59000 119.673
58.76000 115.588
58.93000 126.547
59.10000 112.846
59.27000 113.153
59.44000 113.191
59.61000 128.337
59.78000 108.222
59.95000 117.812
60.12000 111.515
60.29000 111.590
60.46000 119.231
60.63000 126.121
60.80000 113.110
60.97000 117.981
61.14000 125.042
61.31000 116.166
61.48000 128.586
61.65000 294.947
61.82000 210.761
61.99000 128.162
62.16000 129.577
62.33000 124.913
62.50000 125.711
62.67000 125.865
62.84000 128.189
63.01000 133.662
63.18000 141.730
63.35000 124.476
63.52000 127.772
63.69000 128.566
63.86000 128.450
64.03000 144.720
64.20000 154.366
64.37000 136.454
64.54000 143.023
64.71000 169.708
64.88000 179.974
65.05000 182.201
65.22000 206.137
65.39000 248.540
65.56000 303.057
65.73000 881.752
65.90000 1971.347
66.07000 552.171
66.24000 354.873
66.41000 617.523
66.58000 428.206
66.75000 357.985
66.92000 366.404
67.09000 375.935
67.26000 385.950
67.43000 406.895
67.60000 431.990
67.77000 454.268
67.94000 472.270
68.11000 517.003
68.28000 563.425
68.45000 635.686
68.62000 845.805
68.79000 1544.004
68.96000 6657.496
69.13000 43554.570
69.30000 25924.781
69.47000 7811.550
69.64000 956.536
69.81000 631.756
69.98000 511.019
70.00000 507.215