Folder: Master-Thesis/XRD/XRD/08-10-2025 Dep 7/XY Data (part 4)

File: BTO_Mapping_Theta2Theta_08-10-2025_001_25_-20-000_34-641.xy
20.00000 477.933
20.17000 484.775
20.34000 457.632
20.51000 466.774
20.68000 481.079
20.85000 471.537
21.02000 454.415
21.19000 458.921
21.36000 472.765
21.53000 464.161
21.70000 461.848
21.87000 483.211
22.04000 544.628
22.21000 540.124
22.38000 502.048
22.55000 443.346
22.72000 451.530
22.89000 449.718
23.06000 444.769
23.23000 414.057
23.40000 423.322
23.57000 425.627
23.74000 432.952
23.91000 472.419
24.08000 492.410
24.25000 444.360
24.42000 435.328
24.59000 411.592
24.76000 410.485
24.93000 425.311
25.10000 396.522
25.27000 402.935
25.44000 410.154
25.61000 382.748
25.78000 406.694
25.95000 385.505
26.12000 390.927
26.29000 380.205
26.46000 389.314
26.63000 379.950
26.80000 373.017
26.97000 372.471
27.14000 377.675
27.31000 377.406
27.48000 372.371
27.65000 369.011
27.82000 362.395
27.99000 368.037
28.16000 354.919
28.33000 341.332
28.50000 361.495
28.67000 360.125
28.84000 359.922
29.01000 358.889
29.18000 344.207
29.35000 344.147
29.52000 354.999
29.69000 346.401
29.86000 355.735
30.03000 372.847
30.20000 371.915
30.37000 371.125
30.54000 351.777
30.71000 345.198
30.88000 357.508
31.05000 436.215
31.22000 699.136
31.39000 1095.093
31.56000 883.563
31.73000 476.923
31.90000 362.719
32.07000 340.867
32.24000 315.913
32.41000 352.539
32.58000 315.722
32.75000 312.536
32.92000 305.293
33.09000 308.388
33.26000 302.790
33.43000 296.826
33.60000 267.053
33.77000 302.433
33.94000 303.146
34.11000 301.471
34.28000 321.345
34.45000 346.394
34.62000 322.993
34.79000 284.300
34.96000 269.758
35.13000 288.017
35.30000 265.555
35.47000 266.625
35.64000 260.160
35.81000 267.108
35.98000 257.272
36.15000 250.203
36.32000 266.352
36.49000 260.331
36.66000 257.699
36.83000 261.780
37.00000 289.491
37.17000 276.846
37.34000 258.856
37.51000 255.739
37.68000 248.314
37.85000 258.959
38.02000 269.768
38.19000 257.969
38.36000 288.284
38.53000 556.872
38.70000 1027.952
38.87000 892.950
39.04000 381.928
39.21000 253.489
39.38000 243.673
39.55000 222.926
39.72000 225.428
39.89000 212.017
40.06000 230.507
40.23000 225.891
40.40000 222.225
40.57000 222.148
40.74000 214.624
40.91000 216.959
41.08000 209.348
41.25000 212.512
41.42000 205.520
41.59000 198.969
41.76000 217.933
41.93000 213.048
42.10000 204.666
42.27000 221.586
42.44000 217.802
42.61000 209.463
42.78000 200.592
42.95000 196.987
43.12000 197.241
43.29000 189.466
43.46000 200.740
43.63000 206.453
43.80000 201.560
43.97000 197.916
44.14000 192.426
44.31000 194.358
44.48000 196.670
44.65000 209.811
44.82000 232.301
44.99000 268.756
45.16000 284.559
45.33000 245.287
45.50000 213.418
45.67000 204.975
45.84000 186.646
46.01000 183.330
46.18000 175.370
46.35000 174.960
46.52000 175.460
46.69000 168.395
46.86000 178.085
47.03000 156.952
47.20000 159.588
47.37000 172.616
47.54000 158.072
47.71000 159.645
47.88000 153.828
48.05000 161.755
48.22000 158.977
48.39000 158.580
48.56000 161.300
48.73000 154.734
48.90000 165.791
49.07000 162.715
49.24000 147.655
49.41000 151.008
49.58000 154.955
49.75000 160.924
49.92000 153.868
50.09000 150.288
50.26000 155.352
50.43000 158.454
50.60000 164.672
50.77000 176.963
50.94000 166.835
51.11000 137.899
51.28000 153.511
51.45000 152.458
51.62000 149.455
51.79000 136.659
51.96000 145.810
52.13000 145.941
52.30000 139.909
52.47000 136.744
52.64000 142.763
52.81000 137.561
52.98000 134.883
53.15000 143.281
53.32000 155.378
53.49000 151.085
53.66000 145.661
53.83000 145.938
54.00000 148.824
54.17000 141.378
54.34000 136.909
54.51000 146.025
54.68000 142.118
54.85000 141.328
55.02000 144.554
55.19000 154.770
55.36000 167.446
55.53000 187.915
55.70000 349.947
55.87000 617.881
56.04000 653.714
56.21000 420.642
56.38000 216.252
56.55000 161.132
56.72000 139.982
56.89000 135.450
57.06000 126.619
57.23000 126.603
57.40000 133.617
57.57000 131.578
57.74000 129.702
57.91000 123.461
58.08000 123.492
58.25000 133.145
58.42000 123.859
58.59000 117.533
58.76000 123.351
58.93000 125.650
59.10000 111.134
59.27000 114.425
59.44000 115.268
59.61000 118.382
59.78000 118.046
59.95000 112.558
60.12000 107.942
60.29000 110.819
60.46000 116.993
60.63000 107.998
60.80000 119.648
60.97000 117.335
61.14000 123.038
61.31000 119.840
61.48000 126.917
61.65000 263.428
61.82000 221.419
61.99000 127.177
62.16000 121.187
62.33000 124.654
62.50000 118.967
62.67000 122.274
62.84000 125.640
63.01000 126.668
63.18000 143.883
63.35000 128.678
63.52000 132.326
63.69000 130.032
63.86000 135.032
64.03000 140.027
64.20000 148.961
64.37000 150.928
64.54000 151.880
64.71000 176.656
64.88000 162.053
65.05000 182.686
65.22000 211.007
65.39000 244.468
65.56000 299.415
65.73000 765.903
65.90000 1938.838
66.07000 601.490
66.24000 369.398
66.41000 616.273
66.58000 433.876
66.75000 341.071
66.92000 351.562
67.09000 371.891
67.26000 381.031
67.43000 393.492
67.60000 435.812
67.77000 436.729
67.94000 486.634
68.11000 507.809
68.28000 575.261
68.45000 634.499
68.62000 834.726
68.79000 1495.166
68.96000 5242.424
69.13000 42548.719
69.30000 27470.836
69.47000 9199.284
69.64000 987.763
69.81000 638.918
69.98000 520.493
70.00000 507.593

File: BTO_Mapping_Theta2Theta_08-10-2025_001_29_-32-361_23-511.xy
20.00000 479.872
20.17000 472.069
20.34000 465.590
20.51000 479.251
20.68000 483.399
20.85000 473.965
21.02000 468.911
21.19000 468.594
21.36000 477.506
21.53000 452.504
21.70000 458.426
21.87000 515.146
22.04000 584.511
22.21000 556.263
22.38000 497.300
22.55000 458.967
22.72000 436.573
22.89000 436.957
23.06000 433.590
23.23000 416.137
23.40000 426.345
23.57000 422.635
23.74000 429.452
23.91000 443.457
24.08000 447.357
24.25000 425.880
24.42000 410.946
24.59000 407.348
24.76000 400.150
24.93000 405.414
25.10000 414.828
25.27000 408.158
25.44000 405.415
25.61000 398.929
25.78000 379.773
25.95000 395.651
26.12000 385.482
26.29000 382.314
26.46000 370.655
26.63000 382.715
26.80000 365.534
26.97000 374.534
27.14000 388.636
27.31000 369.785
27.48000 391.089
27.65000 384.723
27.82000 377.773
27.99000 366.233
28.16000 357.494
28.33000 355.993
28.50000 355.657
28.67000 346.785
28.84000 347.299
29.01000 348.675
29.18000 361.413
29.35000 347.851
29.52000 353.013
29.69000 356.423
29.86000 397.072
30.03000 408.598
30.20000 398.155
30.37000 378.310
30.54000 379.073
30.71000 365.507
30.88000 414.524
31.05000 561.555
31.22000 1320.989
31.39000 2052.933
31.56000 1254.327
31.73000 495.388
31.90000 376.390
32.07000 341.980
32.24000 317.136
32.41000 321.847
32.58000 323.260
32.75000 317.137
32.92000 327.979
33.09000 299.828
33.26000 313.309
33.43000 301.232
33.60000 301.804
33.77000 293.552
33.94000 311.822
34.11000 306.678
34.28000 323.001
34.45000 328.942
34.62000 327.712
34.79000 292.242
34.96000 284.444
35.13000 278.588
35.30000 251.807
35.47000 274.186
35.64000 264.828
35.81000 264.015
35.98000 255.806
36.15000 256.600
36.32000 243.751
36.49000 269.731
36.66000 260.014
36.83000 251.991
37.00000 266.387
37.17000 271.786
37.34000 256.284
37.51000 243.330
37.68000 248.393
37.85000 243.916
38.02000 270.158
38.19000 264.222
38.36000 316.450
38.53000 593.899
38.70000 912.520
38.87000 707.916
39.04000 343.229
39.21000 232.925
39.38000 227.503
39.55000 242.479
39.72000 214.853
39.89000 231.834
40.06000 218.662
40.23000 214.124
40.40000 212.098
40.57000 219.222
40.74000 211.925
40.91000 203.577
41.08000 211.181
41.25000 207.956
41.42000 206.290
41.59000 197.083
41.76000 201.316
41.93000 199.736
42.10000 205.120
42.27000 202.441
42.44000 194.565
42.61000 201.872
42.78000 200.040
42.95000 207.300
43.12000 199.559
43.29000 185.217
43.46000 197.751
43.63000 189.981
43.80000 181.140
43.97000 192.768
44.14000 193.467
44.31000 189.471
44.48000 202.595
44.65000 222.386
44.82000 266.126
44.99000 311.321
45.16000 280.499
45.33000 257.134
45.50000 238.222
45.67000 206.801
45.84000 217.901
46.01000 186.241
46.18000 182.917
46.35000 184.397
46.52000 176.289
46.69000 180.199
46.86000 175.160
47.03000 166.270
47.20000 168.570
47.37000 165.752
47.54000 169.375
47.71000 161.542
47.88000 149.370
48.05000 156.430
48.22000 165.671
48.39000 149.116
48.56000 165.471
48.73000 154.958
48.90000 159.882
49.07000 151.900
49.24000 153.038
49.41000 144.899
49.58000 145.991
49.75000 145.754
49.92000 160.196
50.09000 165.272
50.26000 164.251
50.43000 184.317
50.60000 212.124
50.77000 201.605
50.94000 173.407
51.11000 160.211
51.28000 149.539
51.45000 150.294
51.62000 151.043
51.79000 136.811
51.96000 147.288
52.13000 146.573
52.30000 130.602
52.47000 133.609
52.64000 142.959
52.81000 131.409
52.98000 139.686
53.15000 151.179
53.32000 160.405
53.49000 164.304
53.66000 154.199
53.83000 139.363
54.00000 142.607
54.17000 135.596
54.34000 141.649
54.51000 152.241
54.68000 142.476
54.85000 140.066
55.02000 148.565
55.19000 165.196
55.36000 178.876
55.53000 266.158
55.70000 497.358
55.87000 672.880
56.04000 578.304
56.21000 352.941
56.38000 199.966
56.55000 160.331
56.72000 146.147
56.89000 133.456
57.06000 124.644
57.23000 135.211
57.40000 122.988
57.57000 126.642
57.74000 121.483
57.91000 123.345
58.08000 128.732
58.25000 126.114
58.42000 121.634
58.59000 122.267
58.76000 109.096
58.93000 128.140
59.10000 116.677
59.27000 120.290
59.44000 112.503
59.61000 124.732
59.78000 120.522
59.95000 114.745
60.12000 123.582
60.29000 109.900
60.46000 112.312
60.63000 115.381
60.80000 121.761
60.97000 114.112
61.14000 119.639
61.31000 127.980
61.48000 124.835
61.65000 269.249
61.82000 249.621
61.99000 131.495
62.16000 127.607
62.33000 129.488
62.50000 132.950
62.67000 124.815
62.84000 131.448
63.01000 127.396
63.18000 126.477
63.35000 145.235
63.52000 124.573
63.69000 136.471
63.86000 139.037
64.03000 145.043
64.20000 139.186
64.37000 150.233
64.54000 155.207
64.71000 162.105
64.88000 176.052
65.05000 213.418
65.22000 236.420
65.39000 309.034
65.56000 364.521
65.73000 844.333
65.90000 2211.830
66.07000 663.126
66.24000 381.749
66.41000 668.171
66.58000 472.244
66.75000 364.945
66.92000 369.890
67.09000 390.693
67.26000 403.618
67.43000 419.737
67.60000 424.934
67.77000 457.397
67.94000 493.844
68.11000 538.228
68.28000 568.061
68.45000 646.308
68.62000 832.714
68.79000 1600.477
68.96000 5456.232
69.13000 47840.582
69.30000 32063.943
69.47000 11237.902
69.64000 1096.123
69.81000 676.403
69.98000 517.573
70.00000 510.277

File: BTO_Mapping_Theta2Theta_08-10-2025_001_31_-19-563_4-158.xy
20.00000 453.437
20.17000 458.793
20.34000 473.844
20.51000 474.617
20.68000 468.963
20.85000 456.458
21.02000 465.137
21.19000 482.890
21.36000 462.134
21.53000 470.711
21.70000 477.404
21.87000 508.740
22.04000 582.885
22.21000 569.793
22.38000 487.178
22.55000 449.523
22.72000 421.042
22.89000 438.709
23.06000 413.991
23.23000 438.639
23.40000 435.124
23.57000 435.008
23.74000 425.573
23.91000 447.004
24.08000 461.730
24.25000 423.367
24.42000 418.850
24.59000 415.600
24.76000 402.503
24.93000 411.361
25.10000 405.846
25.27000 403.873
25.44000 399.831
25.61000 410.286
25.78000 377.644
25.95000 400.169
26.12000 375.501
26.29000 387.398
26.46000 378.232
26.63000 382.349
26.80000 375.674
26.97000 368.165
27.14000 382.096
27.31000 377.103
27.48000 375.926
27.65000 377.559
27.82000 357.942
27.99000 367.099
28.16000 373.851
28.33000 372.399
28.50000 357.324
28.67000 376.070
28.84000 342.090
29.01000 357.247
29.18000 354.053
29.35000 342.435
29.52000 347.026
29.69000 352.760
29.86000 407.215
30.03000 405.961
30.20000 420.241
30.37000 373.580
30.54000 354.306
30.71000 378.141
30.88000 409.851
31.05000 645.400
31.22000 1569.208
31.39000 2218.868
31.56000 1197.913
31.73000 505.961
31.90000 375.869
32.07000 339.536
32.24000 345.235
32.41000 312.616
32.58000 321.528
32.75000 308.633
32.92000 320.799
33.09000 297.599
33.26000 304.886
33.43000 299.502
33.60000 281.040
33.77000 303.728
33.94000 307.047
34.11000 311.579
34.28000 321.686
34.45000 336.183
34.62000 313.506
34.79000 288.451
34.96000 280.806
35.13000 268.221
35.30000 279.454
35.47000 260.364
35.64000 258.720
35.81000 252.223
35.98000 260.953
36.15000 275.643
36.32000 262.622
36.49000 263.768
36.66000 265.879
36.83000 259.890
37.00000 276.274
37.17000 273.129
37.34000 248.474
37.51000 263.187
37.68000 250.466
37.85000 261.103
38.02000 260.451
38.19000 269.179
38.36000 388.729
38.53000 696.685
38.70000 953.572
38.87000 683.192
39.04000 323.518
39.21000 250.440
39.38000 234.119
39.55000 236.915
39.72000 228.116
39.89000 219.762
40.06000 230.963
40.23000 225.372
40.40000 222.418
40.57000 206.965
40.74000 220.545
40.91000 203.268
41.08000 197.797
41.25000 211.368
41.42000 209.370
41.59000 202.808
41.76000 202.316
41.93000 209.302
42.10000 212.409
42.27000 210.231
42.44000 206.250
42.61000 212.506
42.78000 193.481
42.95000 204.266
43.12000 203.198
43.29000 201.041
43.46000 194.628
43.63000 207.858
43.80000 188.976
43.97000 205.578
44.14000 194.817
44.31000 203.114
44.48000 208.253
44.65000 224.607
44.82000 270.112
44.99000 309.832
45.16000 277.554
45.33000 246.902
45.50000 222.476
45.67000 204.452
45.84000 193.404
46.01000 189.354
46.18000 175.887
46.35000 163.889
46.52000 175.919
46.69000 182.182
46.86000 172.831
47.03000 162.074
47.20000 165.375
47.37000 171.450
47.54000 162.740
47.71000 166.928
47.88000 159.101
48.05000 156.845
48.22000 172.116
48.39000 160.625
48.56000 150.979
48.73000 167.207
48.90000 145.128
49.07000 149.607
49.24000 145.604
49.41000 155.271
49.58000 157.852
49.75000 148.166
49.92000 148.740
50.09000 154.937
50.26000 165.788
50.43000 185.776
50.60000 201.695
50.77000 200.176
50.94000 171.941
51.11000 155.991
51.28000 156.910
51.45000 136.584
51.62000 152.127
51.79000 140.328
51.96000 130.489
52.13000 143.813
52.30000 138.881
52.47000 141.468
52.64000 145.152
52.81000 131.065
52.98000 134.544
53.15000 154.892
53.32000 155.725
53.49000 160.898
53.66000 146.028
53.83000 145.782
54.00000 134.156
54.17000 143.762
54.34000 139.178
54.51000 139.326
54.68000 140.913
54.85000 154.031
55.02000 140.442
55.19000 157.696
55.36000 187.996
55.53000 303.750
55.70000 530.949
55.87000 692.458
56.04000 539.583
56.21000 331.078
56.38000 195.712
56.55000 152.435
56.72000 142.174
56.89000 131.883
57.06000 136.263
57.23000 131.131
57.40000 129.619
57.57000 119.694
57.74000 124.482
57.91000 115.132
58.08000 123.047
58.25000 125.082
58.42000 122.525
58.59000 126.984
58.76000 122.169
58.93000 113.736
59.10000 122.997
59.27000 122.046
59.44000 111.680
59.61000 115.769
59.78000 116.598
59.95000 112.999
60.12000 119.714
60.29000 112.844
60.46000 120.236
60.63000 120.280
60.80000 109.668
60.97000 119.301
61.14000 121.298
61.31000 111.990
61.48000 125.527
61.65000 295.098
61.82000 225.681
61.99000 134.667
62.16000 132.825
62.33000 122.467
62.50000 127.447
62.67000 129.038
62.84000 136.596
63.01000 137.164
63.18000 137.233
63.35000 139.233
63.52000 141.778
63.69000 140.795
63.86000 130.672
64.03000 148.881
64.20000 145.513
64.37000 162.745
64.54000 164.778
64.71000 171.765
64.88000 197.423
65.05000 205.131
65.22000 255.927
65.39000 323.505
65.56000 392.436
65.73000 965.324
65.90000 2182.892
66.07000 635.632
66.24000 376.972
66.41000 651.298
66.58000 461.157
66.75000 351.745
66.92000 366.867
67.09000 389.136
67.26000 403.044
67.43000 433.802
67.60000 434.339
67.77000 456.147
67.94000 511.202
68.11000 524.476
68.28000 569.948
68.45000 648.771
68.62000 863.048
68.79000 1633.596
68.96000 6908.833
69.13000 48257.230
69.30000 29319.027
69.47000 9135.225
69.64000 994.183
69.81000 661.410
69.98000 535.562
70.00000 526.313

File: BTO_Mapping_Theta2Theta_08-10-2025_001_32_-29-344_6-237.xy
20.00000 470.472
20.17000 500.923
20.34000 469.294
20.51000 468.719
20.68000 462.904
20.85000 460.538
21.02000 465.406
21.19000 464.522
21.36000 460.907
21.53000 488.401
21.70000 478.656
21.87000 611.622
22.04000 709.032
22.21000 596.637
22.38000 512.207
22.55000 469.769
22.72000 429.700
22.89000 427.221
23.06000 426.667
23.23000 426.481
23.40000 431.975
23.57000 420.742
23.74000 429.588
23.91000 420.955
24.08000 429.187
24.25000 407.172
24.42000 416.261
24.59000 424.688
24.76000 404.836
24.93000 402.178
25.10000 417.144
25.27000 406.126
25.44000 403.343
25.61000 385.108
25.78000 378.898
25.95000 383.020
26.12000 384.907
26.29000 392.062
26.46000 383.492
26.63000 379.584
26.80000 380.441
26.97000 386.714
27.14000 368.452
27.31000 376.553
27.48000 362.193
27.65000 367.511
27.82000 365.965
27.99000 366.417
28.16000 382.945
28.33000 374.932
28.50000 371.572
28.67000 343.579
28.84000 359.264
29.01000 361.845
29.18000 341.461
29.35000 372.404
29.52000 345.528
29.69000 364.391
29.86000 428.571
30.03000 456.591
30.20000 421.110
30.37000 379.849
30.54000 399.021
30.71000 383.813
30.88000 439.966
31.05000 772.983
31.22000 1925.798
31.39000 2758.245
31.56000 1448.712
31.73000 536.424
31.90000 385.623
32.07000 353.565
32.24000 333.286
32.41000 319.690
32.58000 315.160
32.75000 322.087
32.92000 321.655
33.09000 302.974
33.26000 291.384
33.43000 303.164
33.60000 291.456
33.77000 280.450
33.94000 291.365
34.11000 308.940
34.28000 333.232
34.45000 307.695
34.62000 317.982
34.79000 288.937
34.96000 292.271
35.13000 269.520
35.30000 269.640
35.47000 267.125
35.64000 252.838
35.81000 276.278
35.98000 263.264
36.15000 264.068
36.32000 239.888
36.49000 252.410
36.66000 258.334
36.83000 262.488
37.00000 265.715
37.17000 265.750
37.34000 256.637
37.51000 255.523
37.68000 254.373
37.85000 242.979
38.02000 254.234
38.19000 274.477
38.36000 327.575
38.53000 533.044
38.70000 658.279
38.87000 493.515
39.04000 285.126
39.21000 246.984
39.38000 237.405
39.55000 216.362
39.72000 213.127
39.89000 218.227
40.06000 226.925
40.23000 228.354
40.40000 220.020
40.57000 213.586
40.74000 215.232
40.91000 209.912
41.08000 215.011
41.25000 215.474
41.42000 201.864
41.59000 209.895
41.76000 205.561
41.93000 199.816
42.10000 212.267
42.27000 201.957
42.44000 199.995
42.61000 195.486
42.78000 196.562
42.95000 209.418
43.12000 199.293
43.29000 195.462
43.46000 204.571
43.63000 191.220
43.80000 202.412
43.97000 197.967
44.14000 203.740
44.31000 192.055
44.48000 225.181
44.65000 254.906
44.82000 334.012
44.99000 399.579
45.16000 343.007
45.33000 266.554
45.50000 242.192
45.67000 222.208
45.84000 206.830
46.01000 190.143
46.18000 186.962
46.35000 180.295
46.52000 181.449
46.69000 160.668
46.86000 183.212
47.03000 167.912
47.20000 159.664
47.37000 166.050
47.54000 166.778
47.71000 162.608
47.88000 164.986
48.05000 152.093
48.22000 152.879
48.39000 164.196
48.56000 165.912
48.73000 158.460
48.90000 157.936
49.07000 154.404
49.24000 148.493
49.41000 158.909
49.58000 149.365
49.75000 156.393
49.92000 153.416
50.09000 156.565
50.26000 188.456
50.43000 214.314
50.60000 246.525
50.77000 219.464
50.94000 176.662
51.11000 151.677
51.28000 160.387
51.45000 144.084
51.62000 145.092
51.79000 140.746
51.96000 143.566
52.13000 133.848
52.30000 145.752
52.47000 146.709
52.64000 145.626
52.81000 153.827
52.98000 139.900
53.15000 157.778
53.32000 161.360
53.49000 163.131
53.66000 148.241
53.83000 149.907
54.00000 138.872
54.17000 143.017
54.34000 139.957
54.51000 148.852
54.68000 136.531
54.85000 141.176
55.02000 144.376
55.19000 163.995
55.36000 209.491
55.53000 321.618
55.70000 549.978
55.87000 649.914
56.04000 477.555
56.21000 299.988
56.38000 189.238
56.55000 142.816
56.72000 136.222
56.89000 135.445
57.06000 128.513
57.23000 131.946
57.40000 134.101
57.57000 129.154
57.74000 124.885
57.91000 123.261
58.08000 127.007
58.25000 124.970
58.42000 112.359
58.59000 124.620
58.76000 113.917
58.93000 114.748
59.10000 127.348
59.27000 119.100
59.44000 124.620
59.61000 125.020
59.78000 117.276
59.95000 113.032
60.12000 113.343
60.29000 115.633
60.46000 118.070
60.63000 116.939
60.80000 120.818
60.97000 126.343
61.14000 123.945
61.31000 126.719
61.48000 140.710
61.65000 312.787
61.82000 255.958
61.99000 139.876
62.16000 131.673
62.33000 126.191
62.50000 130.510
62.67000 135.307
62.84000 128.742
63.01000 138.088
63.18000 140.532
63.35000 124.268
63.52000 141.398
63.69000 137.748
63.86000 147.470
64.03000 150.292
64.20000 158.699
64.37000 160.488
64.54000 173.268
64.71000 188.272
64.88000 201.638
65.05000 242.386
65.22000 275.582
65.39000 350.530
65.56000 424.206
65.73000 954.527
65.90000 2387.336
66.07000 714.293
66.24000 418.424
66.41000 718.246
66.58000 503.246
66.75000 374.624
66.92000 372.747
67.09000 399.890
67.26000 420.482
67.43000 432.249
67.60000 451.047
67.77000 501.019
67.94000 505.091
68.11000 554.576
68.28000 587.497
68.45000 671.669
68.62000 925.318
68.79000 1746.641
68.96000 6801.460
69.13000 52515.789
69.30000 34043.363
69.47000 11367.413
69.64000 1102.543
69.81000 669.319
69.98000 535.175
70.00000 518.035

File: BTO_Mapping_Theta2Theta_08-10-2025_001_33_-39-126_8-316.xy
20.00000 481.063
20.17000 460.736
20.34000 468.859
20.51000 470.101
20.68000 478.126
20.85000 470.153
21.02000 465.901
21.19000 468.501
21.36000 478.317
21.53000 470.143
21.70000 515.959
21.87000 658.626
22.04000 821.674
22.21000 633.166
22.38000 495.702
22.55000 476.237
22.72000 448.341
22.89000 449.578
23.06000 451.588
23.23000 436.953
23.40000 424.236
23.57000 424.703
23.74000 426.387
23.91000 405.486
24.08000 412.946
24.25000 419.782
24.42000 417.086
24.59000 416.955
24.76000 402.812
24.93000 399.976
25.10000 405.344
25.27000 400.522
25.44000 388.270
25.61000 406.838
25.78000 389.016
25.95000 392.070
26.12000 405.394
26.29000 378.772
26.46000 374.941
26.63000 386.613
26.80000 383.075
26.97000 388.526
27.14000 400.227
27.31000 368.355
27.48000 368.767
27.65000 371.813
27.82000 361.137
27.99000 371.773
28.16000 374.692
28.33000 372.129
28.50000 363.204
28.67000 359.632
28.84000 362.719
29.01000 375.841
29.18000 342.132
29.35000 350.893
29.52000 361.928
29.69000 371.338
29.86000 412.587
30.03000 466.165
30.20000 443.520
30.37000 372.544
30.54000 407.825
30.71000 398.490
30.88000 463.254
31.05000 831.000
31.22000 2261.614
31.39000 3201.098
31.56000 1692.564
31.73000 617.457
31.90000 396.413
32.07000 353.392
32.24000 338.273
32.41000 340.604
32.58000 325.764
32.75000 313.963
32.92000 320.285
33.09000 314.085
33.26000 302.941
33.43000 297.388
33.60000 289.466
33.77000 287.166
33.94000 287.416
34.11000 279.609
34.28000 278.046
34.45000 303.507
34.62000 269.382
34.79000 280.699
34.96000 272.157
35.13000 285.055
35.30000 273.166
35.47000 252.444
35.64000 268.080
35.81000 254.658
35.98000 269.582
36.15000 266.428
36.32000 262.322
36.49000 260.378
36.66000 261.001
36.83000 253.430
37.00000 258.053
37.17000 266.498
37.34000 252.149
37.51000 236.642
37.68000 259.388
37.85000 257.163
38.02000 249.481
38.19000 262.864
38.36000 313.968
38.53000 439.435
38.70000 510.455
38.87000 395.969
39.04000 278.471
39.21000 233.449
39.38000 230.522
39.55000 229.673
39.72000 235.264
39.89000 235.800
40.06000 234.682
40.23000 214.270
40.40000 214.396
40.57000 216.079
40.74000 229.169
40.91000 204.568
41.08000 213.397
41.25000 209.655
41.42000 214.448
41.59000 209.479
41.76000 208.911
41.93000 216.470
42.10000 203.529
42.27000 208.300
42.44000 195.708
42.61000 195.629
42.78000 198.236
42.95000 217.511
43.12000 221.301
43.29000 200.287
43.46000 197.704
43.63000 193.990
43.80000 190.737
43.97000 196.712
44.14000 198.573
44.31000 199.774
44.48000 223.393
44.65000 298.321
44.82000 434.565
44.99000 480.323
45.16000 392.650
45.33000 291.701
45.50000 250.063
45.67000 219.362
45.84000 202.511
46.01000 187.914
46.18000 181.695
46.35000 175.109
46.52000 183.290
46.69000 178.292
46.86000 176.828
47.03000 176.853
47.20000 171.404
47.37000 173.138
47.54000 164.388
47.71000 163.464
47.88000 163.589
48.05000 159.817
48.22000 159.528
48.39000 175.160
48.56000 157.279
48.73000 148.719
48.90000 150.876
49.07000 150.196
49.24000 146.767
49.41000 162.372
49.58000 146.408
49.75000 143.416
49.92000 156.095
50.09000 160.892
50.26000 187.409
50.43000 233.487
50.60000 258.624
50.77000 233.961
50.94000 183.891
51.11000 161.377
51.28000 162.390
51.45000 141.042
51.62000 139.108
51.79000 144.656
51.96000 145.321
52.13000 138.488
52.30000 138.953
52.47000 152.244
52.64000 137.481
52.81000 143.823
52.98000 147.453
53.15000 152.710
53.32000 157.084
53.49000 141.400
53.66000 137.751
53.83000 137.494
54.00000 136.927
54.17000 150.906
54.34000 137.849
54.51000 137.335
54.68000 144.335
54.85000 141.771
55.02000 147.261
55.19000 159.195
55.36000 208.003
55.53000 333.414
55.70000 505.096
55.87000 593.362
56.04000 467.448
56.21000 296.741
56.38000 197.340
56.55000 157.291
56.72000 146.049
56.89000 138.958
57.06000 127.337
57.23000 133.934
57.40000 132.027
57.57000 127.183
57.74000 118.798
57.91000 121.811
58.08000 121.078
58.25000 129.788
58.42000 148.360
58.59000 123.804
58.76000 120.350
58.93000 107.400
59.10000 117.418
59.27000 124.409
59.44000 110.875
59.61000 114.892
59.78000 107.720
59.95000 120.860
60.12000 116.701
60.29000 113.616
60.46000 112.697
60.63000 115.731
60.80000 125.506
60.97000 120.018
61.14000 114.423
61.31000 121.215
61.48000 119.986
61.65000 323.450
61.82000 285.226
61.99000 141.812
62.16000 126.129
62.33000 134.605
62.50000 125.538
62.67000 137.461
62.84000 122.393
63.01000 138.180
63.18000 124.600
63.35000 124.986
63.52000 130.586
63.69000 144.360
63.86000 142.926
64.03000 147.347
64.20000 149.125
64.37000 167.135
64.54000 182.975
64.71000 181.252
64.88000 196.688
65.05000 257.349
65.22000 307.959
65.39000 381.483
65.56000 474.871
65.73000 1005.670
65.90000 2626.779
66.07000 866.553
66.24000 431.314
66.41000 776.874
66.58000 562.987
66.75000 409.008
66.92000 400.287
67.09000 415.585
67.26000 455.581
67.43000 469.930
67.60000 487.251
67.77000 524.835
67.94000 523.483
68.11000 590.640
68.28000 633.161
68.45000 710.762
68.62000 978.495
68.79000 1902.567
68.96000 7339.679
69.13000 58496.055
69.30000 41080.617
69.47000 14406.357
69.64000 1248.678
69.81000 721.168
69.98000 566.016
70.00000 547.335