Folder: Master-Thesis/XRD/XRD/08-10-2025 Dep 7/XY Data (part 6)

File: BTO_Mapping_Theta2Theta_08-10-2025_001_52_9-271_-28-532.xy
20.00000 461.541
20.17000 476.014
20.34000 487.561
20.51000 461.006
20.68000 471.592
20.85000 469.827
21.02000 464.704
21.19000 476.848
21.36000 452.140
21.53000 459.505
21.70000 475.102
21.87000 508.990
22.04000 543.488
22.21000 526.793
22.38000 471.492
22.55000 466.540
22.72000 452.747
22.89000 443.624
23.06000 456.984
23.23000 459.410
23.40000 443.030
23.57000 453.818
23.74000 496.946
23.91000 530.737
24.08000 489.748
24.25000 455.986
24.42000 444.770
24.59000 429.798
24.76000 403.438
24.93000 393.512
25.10000 408.807
25.27000 423.841
25.44000 389.263
25.61000 405.590
25.78000 388.053
25.95000 409.702
26.12000 394.782
26.29000 377.717
26.46000 383.827
26.63000 371.587
26.80000 387.526
26.97000 379.072
27.14000 389.713
27.31000 376.207
27.48000 370.233
27.65000 364.514
27.82000 370.578
27.99000 368.255
28.16000 365.729
28.33000 377.353
28.50000 375.547
28.67000 334.159
28.84000 349.004
29.01000 367.868
29.18000 356.072
29.35000 339.750
29.52000 334.443
29.69000 363.653
29.86000 368.038
30.03000 381.195
30.20000 364.315
30.37000 354.272
30.54000 357.620
30.71000 376.799
30.88000 397.201
31.05000 513.362
31.22000 912.925
31.39000 1243.487
31.56000 800.916
31.73000 476.092
31.90000 362.423
32.07000 342.716
32.24000 338.003
32.41000 333.871
32.58000 312.538
32.75000 304.312
32.92000 321.260
33.09000 305.295
33.26000 299.619
33.43000 273.724
33.60000 282.585
33.77000 313.283
33.94000 297.020
34.11000 318.179
34.28000 361.965
34.45000 347.631
34.62000 321.510
34.79000 306.962
34.96000 279.758
35.13000 272.189
35.30000 265.540
35.47000 266.219
35.64000 266.234
35.81000 269.428
35.98000 274.757
36.15000 271.761
36.32000 256.472
36.49000 250.258
36.66000 254.090
36.83000 276.850
37.00000 278.581
37.17000 284.135
37.34000 269.841
37.51000 263.449
37.68000 253.907
37.85000 256.558
38.02000 255.531
38.19000 267.741
38.36000 341.057
38.53000 714.340
38.70000 1113.979
38.87000 745.562
39.04000 334.508
39.21000 246.827
39.38000 251.727
39.55000 225.887
39.72000 240.897
39.89000 234.224
40.06000 239.491
40.23000 219.215
40.40000 214.142
40.57000 222.493
40.74000 211.573
40.91000 219.390
41.08000 214.416
41.25000 220.726
41.42000 214.870
41.59000 222.722
41.76000 200.501
41.93000 211.768
42.10000 221.253
42.27000 210.786
42.44000 211.120
42.61000 208.356
42.78000 208.185
42.95000 221.633
43.12000 204.934
43.29000 202.202
43.46000 199.323
43.63000 191.388
43.80000 193.200
43.97000 190.268
44.14000 194.696
44.31000 192.748
44.48000 214.707
44.65000 220.975
44.82000 241.832
44.99000 273.581
45.16000 249.208
45.33000 230.247
45.50000 213.791
45.67000 195.410
45.84000 182.493
46.01000 189.300
46.18000 180.093
46.35000 168.763
46.52000 164.398
46.69000 184.408
46.86000 173.268
47.03000 174.434
47.20000 163.871
47.37000 165.677
47.54000 163.503
47.71000 152.380
47.88000 166.943
48.05000 169.763
48.22000 156.793
48.39000 157.522
48.56000 158.856
48.73000 152.602
48.90000 151.426
49.07000 155.632
49.24000 159.584
49.41000 164.429
49.58000 146.717
49.75000 150.866
49.92000 145.689
50.09000 160.378
50.26000 160.578
50.43000 156.992
50.60000 168.922
50.77000 170.678
50.94000 155.119
51.11000 155.178
51.28000 156.008
51.45000 141.411
51.62000 137.879
51.79000 145.457
51.96000 145.241
52.13000 141.023
52.30000 135.240
52.47000 133.461
52.64000 135.697
52.81000 144.757
52.98000 139.364
53.15000 159.484
53.32000 169.809
53.49000 159.070
53.66000 144.741
53.83000 146.203
54.00000 150.929
54.17000 149.054
54.34000 146.051
54.51000 142.772
54.68000 139.978
54.85000 147.030
55.02000 148.217
55.19000 160.283
55.36000 176.736
55.53000 242.544
55.70000 424.083
55.87000 626.154
56.04000 618.548
56.21000 335.460
56.38000 195.971
56.55000 157.461
56.72000 140.057
56.89000 132.106
57.06000 137.380
57.23000 126.848
57.40000 133.030
57.57000 129.801
57.74000 120.807
57.91000 129.203
58.08000 119.405
58.25000 115.635
58.42000 124.103
58.59000 124.132
58.76000 124.461
58.93000 114.231
59.10000 125.104
59.27000 119.277
59.44000 123.924
59.61000 122.308
59.78000 111.238
59.95000 111.631
60.12000 118.692
60.29000 122.079
60.46000 123.287
60.63000 123.155
60.80000 117.934
60.97000 127.169
61.14000 121.185
61.31000 119.223
61.48000 143.286
61.65000 268.629
61.82000 187.416
61.99000 121.006
62.16000 126.400
62.33000 117.833
62.50000 130.765
62.67000 134.318
62.84000 132.046
63.01000 128.904
63.18000 136.927
63.35000 137.443
63.52000 132.887
63.69000 135.539
63.86000 143.107
64.03000 147.504
64.20000 149.415
64.37000 156.354
64.54000 155.140
64.71000 162.874
64.88000 177.874
65.05000 191.839
65.22000 216.230
65.39000 255.947
65.56000 315.069
65.73000 1014.360
65.90000 1855.889
66.07000 451.360
66.24000 379.224
66.41000 599.478
66.58000 394.928
66.75000 327.541
66.92000 360.279
67.09000 354.981
67.26000 381.175
67.43000 401.865
67.60000 423.059
67.77000 450.763
67.94000 452.630
68.11000 507.847
68.28000 555.990
68.45000 609.521
68.62000 857.811
68.79000 1529.967
68.96000 9890.718
69.13000 42017.777
69.30000 21913.605
69.47000 4882.382
69.64000 830.979
69.81000 594.684
69.98000 504.481
70.00000 490.521

File: BTO_Mapping_Theta2Theta_08-10-2025_001_54_6-691_-7-431.xy
20.00000 472.277
20.17000 475.185
20.34000 466.189
20.51000 474.018
20.68000 473.403
20.85000 467.588
21.02000 475.921
21.19000 463.569
21.36000 459.995
21.53000 479.276
21.70000 473.691
21.87000 499.753
22.04000 541.000
22.21000 523.786
22.38000 469.324
22.55000 462.104
22.72000 430.309
22.89000 433.569
23.06000 443.746
23.23000 451.914
23.40000 437.096
23.57000 440.223
23.74000 464.736
23.91000 517.468
24.08000 496.622
24.25000 440.218
24.42000 426.887
24.59000 433.017
24.76000 400.743
24.93000 403.708
25.10000 396.144
25.27000 396.822
25.44000 389.785
25.61000 417.867
25.78000 405.100
25.95000 407.848
26.12000 398.377
26.29000 394.778
26.46000 385.843
26.63000 386.059
26.80000 370.831
26.97000 362.792
27.14000 394.844
27.31000 381.417
27.48000 378.192
27.65000 363.430
27.82000 385.037
27.99000 357.840
28.16000 358.321
28.33000 375.443
28.50000 375.048
28.67000 368.017
28.84000 344.880
29.01000 368.982
29.18000 336.796
29.35000 336.367
29.52000 346.580
29.69000 364.649
29.86000 372.880
30.03000 365.558
30.20000 385.089
30.37000 360.518
30.54000 346.519
30.71000 372.995
30.88000 386.254
31.05000 505.526
31.22000 867.376
31.39000 1214.977
31.56000 811.197
31.73000 454.178
31.90000 366.174
32.07000 316.207
32.24000 347.244
32.41000 331.184
32.58000 325.892
32.75000 327.075
32.92000 328.980
33.09000 309.120
33.26000 291.093
33.43000 301.480
33.60000 276.727
33.77000 313.205
33.94000 321.267
34.11000 329.520
34.28000 358.237
34.45000 363.470
34.62000 334.690
34.79000 307.575
34.96000 285.587
35.13000 268.564
35.30000 279.584
35.47000 275.822
35.64000 265.405
35.81000 265.246
35.98000 267.198
36.15000 271.434
36.32000 268.712
36.49000 261.434
36.66000 263.876
36.83000 264.837
37.00000 277.428
37.17000 260.617
37.34000 269.176
37.51000 253.743
37.68000 257.762
37.85000 250.692
38.02000 243.120
38.19000 273.462
38.36000 329.908
38.53000 663.372
38.70000 1118.657
38.87000 785.666
39.04000 342.057
39.21000 244.321
39.38000 245.040
39.55000 246.362
39.72000 239.182
39.89000 239.239
40.06000 229.446
40.23000 223.973
40.40000 224.733
40.57000 219.495
40.74000 215.051
40.91000 209.881
41.08000 208.691
41.25000 209.763
41.42000 218.863
41.59000 209.256
41.76000 210.144
41.93000 218.810
42.10000 221.687
42.27000 219.377
42.44000 197.457
42.61000 208.825
42.78000 198.584
42.95000 213.887
43.12000 198.119
43.29000 196.462
43.46000 200.547
43.63000 193.104
43.80000 189.997
43.97000 193.288
44.14000 182.663
44.31000 211.488
44.48000 204.696
44.65000 224.045
44.82000 241.248
44.99000 258.967
45.16000 251.425
45.33000 227.562
45.50000 203.231
45.67000 204.577
45.84000 195.314
46.01000 188.042
46.18000 179.122
46.35000 172.910
46.52000 185.640
46.69000 168.784
46.86000 180.798
47.03000 178.478
47.20000 171.543
47.37000 158.287
47.54000 170.383
47.71000 168.467
47.88000 153.838
48.05000 156.064
48.22000 158.186
48.39000 160.148
48.56000 161.354
48.73000 154.464
48.90000 167.474
49.07000 147.859
49.24000 159.725
49.41000 161.252
49.58000 157.481
49.75000 147.510
49.92000 150.315
50.09000 152.636
50.26000 151.214
50.43000 154.983
50.60000 154.247
50.77000 162.127
50.94000 161.929
51.11000 151.780
51.28000 138.827
51.45000 148.331
51.62000 149.408
51.79000 142.520
51.96000 137.372
52.13000 143.568
52.30000 136.509
52.47000 136.835
52.64000 132.127
52.81000 135.774
52.98000 128.648
53.15000 147.515
53.32000 159.020
53.49000 160.947
53.66000 154.689
53.83000 137.527
54.00000 140.729
54.17000 139.527
54.34000 153.010
54.51000 136.731
54.68000 137.437
54.85000 147.402
55.02000 152.527
55.19000 155.934
55.36000 175.232
55.53000 231.898
55.70000 390.379
55.87000 621.789
56.04000 583.193
56.21000 351.208
56.38000 200.408
56.55000 158.926
56.72000 137.417
56.89000 121.734
57.06000 129.659
57.23000 133.686
57.40000 135.899
57.57000 125.653
57.74000 138.132
57.91000 125.434
58.08000 118.326
58.25000 116.748
58.42000 112.710
58.59000 120.493
58.76000 110.883
58.93000 124.310
59.10000 111.143
59.27000 129.445
59.44000 116.273
59.61000 126.027
59.78000 124.375
59.95000 122.313
60.12000 119.157
60.29000 108.146
60.46000 122.625
60.63000 131.127
60.80000 122.494
60.97000 125.147
61.14000 120.271
61.31000 125.059
61.48000 134.592
61.65000 280.994
61.82000 195.170
61.99000 130.069
62.16000 126.758
62.33000 130.341
62.50000 120.792
62.67000 130.365
62.84000 129.735
63.01000 124.010
63.18000 116.073
63.35000 138.969
63.52000 129.191
63.69000 138.161
63.86000 141.446
64.03000 142.721
64.20000 141.898
64.37000 158.909
64.54000 165.255
64.71000 164.448
64.88000 186.280
65.05000 191.141
65.22000 209.871
65.39000 243.275
65.56000 324.661
65.73000 968.673
65.90000 1852.508
66.07000 492.177
66.24000 382.082
66.41000 598.093
66.58000 384.470
66.75000 339.867
66.92000 353.339
67.09000 357.835
67.26000 368.382
67.43000 377.528
67.60000 433.357
67.77000 464.289
67.94000 466.031
68.11000 501.093
68.28000 563.902
68.45000 606.470
68.62000 847.033
68.79000 1548.603
68.96000 8715.184
69.13000 42155.473
69.30000 22551.203
69.47000 5536.473
69.64000 853.436
69.81000 600.434
69.98000 504.482
70.00000 505.832

File: BTO_Mapping_Theta2Theta_08-10-2025_001_55_13-383_-14-863.xy
20.00000 478.301
20.17000 476.820
20.34000 467.135
20.51000 473.694
20.68000 471.287
20.85000 461.494
21.02000 472.560
21.19000 458.620
21.36000 482.240
21.53000 457.172
21.70000 461.980
21.87000 509.271
22.04000 515.963
22.21000 509.026
22.38000 474.104
22.55000 454.081
22.72000 460.305
22.89000 447.771
23.06000 436.988
23.23000 451.021
23.40000 446.634
23.57000 454.470
23.74000 491.710
23.91000 529.821
24.08000 541.505
24.25000 474.604
24.42000 423.251
24.59000 420.553
24.76000 429.464
24.93000 410.256
25.10000 409.585
25.27000 402.604
25.44000 417.454
25.61000 380.427
25.78000 385.676
25.95000 376.335
26.12000 378.779
26.29000 389.632
26.46000 385.118
26.63000 382.072
26.80000 378.575
26.97000 377.301
27.14000 374.885
27.31000 361.846
27.48000 366.077
27.65000 367.500
27.82000 358.851
27.99000 352.949
28.16000 374.081
28.33000 362.684
28.50000 375.682
28.67000 382.331
28.84000 348.372
29.01000 366.452
29.18000 360.077
29.35000 357.427
29.52000 342.133
29.69000 360.045
29.86000 389.438
30.03000 381.009
30.20000 386.197
30.37000 373.963
30.54000 384.479
30.71000 374.324
30.88000 406.545
31.05000 534.786
31.22000 933.631
31.39000 1222.631
31.56000 821.026
31.73000 459.516
31.90000 369.698
32.07000 356.683
32.24000 337.763
32.41000 330.032
32.58000 326.969
32.75000 319.794
32.92000 316.915
33.09000 301.728
33.26000 297.210
33.43000 299.158
33.60000 303.950
33.77000 310.901
33.94000 316.787
34.11000 341.230
34.28000 358.017
34.45000 349.093
34.62000 325.472
34.79000 304.579
34.96000 279.074
35.13000 275.527
35.30000 268.157
35.47000 275.216
35.64000 273.425
35.81000 261.963
35.98000 255.543
36.15000 237.956
36.32000 265.776
36.49000 268.089
36.66000 257.784
36.83000 268.203
37.00000 273.263
37.17000 265.961
37.34000 249.751
37.51000 269.255
37.68000 265.372
37.85000 251.511
38.02000 262.177
38.19000 273.017
38.36000 337.244
38.53000 648.787
38.70000 1004.807
38.87000 674.635
39.04000 312.645
39.21000 242.322
39.38000 240.656
39.55000 244.657
39.72000 238.948
39.89000 240.026
40.06000 239.358
40.23000 225.571
40.40000 224.330
40.57000 222.518
40.74000 219.104
40.91000 230.109
41.08000 205.311
41.25000 207.722
41.42000 215.407
41.59000 209.808
41.76000 212.340
41.93000 214.381
42.10000 225.619
42.27000 224.302
42.44000 215.298
42.61000 220.643
42.78000 198.125
42.95000 210.658
43.12000 191.771
43.29000 205.487
43.46000 189.574
43.63000 204.243
43.80000 189.412
43.97000 182.085
44.14000 197.426
44.31000 205.010
44.48000 214.483
44.65000 219.713
44.82000 228.661
44.99000 243.964
45.16000 244.022
45.33000 209.200
45.50000 207.029
45.67000 194.735
45.84000 183.707
46.01000 181.076
46.18000 177.184
46.35000 181.719
46.52000 169.788
46.69000 167.886
46.86000 170.374
47.03000 172.946
47.20000 159.001
47.37000 168.555
47.54000 161.557
47.71000 169.932
47.88000 160.846
48.05000 169.089
48.22000 164.986
48.39000 155.614
48.56000 156.918
48.73000 158.367
48.90000 159.765
49.07000 159.084
49.24000 157.849
49.41000 156.091
49.58000 149.196
49.75000 150.611
49.92000 145.307
50.09000 162.591
50.26000 153.644
50.43000 155.860
50.60000 163.255
50.77000 172.927
50.94000 156.939
51.11000 139.137
51.28000 158.221
51.45000 149.320
51.62000 147.629
51.79000 147.464
51.96000 143.060
52.13000 137.714
52.30000 140.106
52.47000 146.820
52.64000 135.584
52.81000 145.422
52.98000 145.170
53.15000 154.458
53.32000 159.157
53.49000 154.347
53.66000 152.640
53.83000 141.842
54.00000 146.781
54.17000 148.662
54.34000 130.526
54.51000 133.172
54.68000 136.124
54.85000 152.059
55.02000 141.073
55.19000 167.877
55.36000 169.962
55.53000 234.834
55.70000 362.986
55.87000 563.078
56.04000 518.069
56.21000 320.257
56.38000 196.575
56.55000 157.167
56.72000 131.845
56.89000 141.889
57.06000 125.008
57.23000 122.899
57.40000 117.127
57.57000 126.051
57.74000 124.771
57.91000 125.329
58.08000 126.698
58.25000 123.027
58.42000 113.268
58.59000 117.082
58.76000 124.359
58.93000 127.668
59.10000 110.353
59.27000 113.347
59.44000 127.083
59.61000 112.365
59.78000 123.726
59.95000 115.167
60.12000 116.321
60.29000 117.412
60.46000 113.139
60.63000 124.495
60.80000 120.445
60.97000 128.517
61.14000 119.906
61.31000 122.046
61.48000 143.431
61.65000 272.793
61.82000 180.398
61.99000 141.319
62.16000 131.139
62.33000 132.924
62.50000 132.031
62.67000 129.250
62.84000 133.561
63.01000 116.477
63.18000 122.508
63.35000 133.337
63.52000 139.085
63.69000 142.725
63.86000 139.120
64.03000 148.027
64.20000 158.109
64.37000 156.626
64.54000 159.443
64.71000 167.789
64.88000 191.053
65.05000 205.253
65.22000 213.359
65.39000 252.237
65.56000 339.143
65.73000 1053.003
65.90000 1837.401
66.07000 471.446
66.24000 370.794
66.41000 627.980
66.58000 394.873
66.75000 336.721
66.92000 351.165
67.09000 374.497
67.26000 388.843
67.43000 404.416
67.60000 413.206
67.77000 441.992
67.94000 479.635
68.11000 508.133
68.28000 546.366
68.45000 632.910
68.62000 865.420
68.79000 1557.234
68.96000 10129.612
69.13000 42612.598
69.30000 22193.176
69.47000 4923.707
69.64000 857.535
69.81000 588.783
69.98000 488.265
70.00000 490.271

File: BTO_Mapping_Theta2Theta_08-10-2025_001_56_20-074_-22-294.xy
20.00000 484.593
20.17000 462.786
20.34000 469.784
20.51000 480.916
20.68000 460.103
20.85000 470.719
21.02000 497.190
21.19000 443.723
21.36000 457.270
21.53000 484.352
21.70000 480.122
21.87000 497.677
22.04000 519.672
22.21000 510.344
22.38000 485.261
22.55000 468.417
22.72000 450.922
22.89000 436.503
23.06000 440.106
23.23000 452.785
23.40000 456.178
23.57000 463.911
23.74000 493.777
23.91000 553.782
24.08000 561.376
24.25000 476.342
24.42000 452.806
24.59000 434.339
24.76000 411.709
24.93000 408.014
25.10000 406.363
25.27000 408.661
25.44000 402.639
25.61000 388.741
25.78000 409.760
25.95000 421.822
26.12000 400.216
26.29000 398.979
26.46000 389.172
26.63000 388.031
26.80000 389.825
26.97000 396.761
27.14000 386.917
27.31000 398.593
27.48000 384.029
27.65000 383.281
27.82000 385.217
27.99000 363.787
28.16000 365.810
28.33000 364.733
28.50000 379.293
28.67000 367.431
28.84000 356.392
29.01000 369.841
29.18000 356.670
29.35000 352.819
29.52000 366.291
29.69000 357.928
29.86000 384.470
30.03000 384.761
30.20000 392.506
30.37000 364.140
30.54000 382.709
30.71000 392.190
30.88000 404.001
31.05000 555.090
31.22000 893.194
31.39000 1125.150
31.56000 753.340
31.73000 449.368
31.90000 371.877
32.07000 337.247
32.24000 352.993
32.41000 342.382
32.58000 339.997
32.75000 336.628
32.92000 319.547
33.09000 299.020
33.26000 295.706
33.43000 284.576
33.60000 314.690
33.77000 309.152
33.94000 316.273
34.11000 324.486
34.28000 343.134
34.45000 340.997
34.62000 334.448
34.79000 297.069
34.96000 283.831
35.13000 258.412
35.30000 260.809
35.47000 277.533
35.64000 270.799
35.81000 276.259
35.98000 263.926
36.15000 262.212
36.32000 264.462
36.49000 263.549
36.66000 257.298
36.83000 276.537
37.00000 278.051
37.17000 280.629
37.34000 246.904
37.51000 242.921
37.68000 245.246
37.85000 253.713
38.02000 270.583
38.19000 270.574
38.36000 329.248
38.53000 610.316
38.70000 928.912
38.87000 608.417
39.04000 306.905
39.21000 267.413
39.38000 246.146
39.55000 229.258
39.72000 232.815
39.89000 247.684
40.06000 231.259
40.23000 216.413
40.40000 228.272
40.57000 219.673
40.74000 220.342
40.91000 208.294
41.08000 226.589
41.25000 207.300
41.42000 210.412
41.59000 213.187
41.76000 213.254
41.93000 216.566
42.10000 216.366
42.27000 242.422
42.44000 237.894
42.61000 220.111
42.78000 205.650
42.95000 211.053
43.12000 198.257
43.29000 212.819
43.46000 199.665
43.63000 195.207
43.80000 206.176
43.97000 201.878
44.14000 199.005
44.31000 201.865
44.48000 209.464
44.65000 221.983
44.82000 246.285
44.99000 232.243
45.16000 244.742
45.33000 227.329
45.50000 202.726
45.67000 198.257
45.84000 185.515
46.01000 177.058
46.18000 175.628
46.35000 180.192
46.52000 190.665
46.69000 171.152
46.86000 173.261
47.03000 174.682
47.20000 168.360
47.37000 166.116
47.54000 162.995
47.71000 165.188
47.88000 162.788
48.05000 148.629
48.22000 163.332
48.39000 160.319
48.56000 157.521
48.73000 161.978
48.90000 160.195
49.07000 165.097
49.24000 155.918
49.41000 161.034
49.58000 163.074
49.75000 144.790
49.92000 167.276
50.09000 158.850
50.26000 153.151
50.43000 169.194
50.60000 160.181
50.77000 160.062
50.94000 159.880
51.11000 158.228
51.28000 143.614
51.45000 138.932
51.62000 156.128
51.79000 150.146
51.96000 142.076
52.13000 140.034
52.30000 144.646
52.47000 140.050
52.64000 130.423
52.81000 152.255
52.98000 145.957
53.15000 145.385
53.32000 159.919
53.49000 155.113
53.66000 146.922
53.83000 153.549
54.00000 154.936
54.17000 141.728
54.34000 137.567
54.51000 146.965
54.68000 152.672
54.85000 146.864
55.02000 150.758
55.19000 154.001
55.36000 178.684
55.53000 227.427
55.70000 342.307
55.87000 446.940
56.04000 440.332
56.21000 298.645
56.38000 189.783
56.55000 149.574
56.72000 151.173
56.89000 136.576
57.06000 135.084
57.23000 128.396
57.40000 115.485
57.57000 129.529
57.74000 136.566
57.91000 123.173
58.08000 129.165
58.25000 132.157
58.42000 124.638
58.59000 124.279
58.76000 120.015
58.93000 120.341
59.10000 120.584
59.27000 115.059
59.44000 115.296
59.61000 120.921
59.78000 118.712
59.95000 121.110
60.12000 120.374
60.29000 118.451
60.46000 113.186
60.63000 116.035
60.80000 123.944
60.97000 120.549
61.14000 124.739
61.31000 122.545
61.48000 134.756
61.65000 273.125
61.82000 178.591
61.99000 133.054
62.16000 124.942
62.33000 131.483
62.50000 133.013
62.67000 126.530
62.84000 119.456
63.01000 141.798
63.18000 138.370
63.35000 137.489
63.52000 145.865
63.69000 138.480
63.86000 145.521
64.03000 142.556
64.20000 145.986
64.37000 149.978
64.54000 169.539
64.71000 160.749
64.88000 187.421
65.05000 185.129
65.22000 221.355
65.39000 259.485
65.56000 325.419
65.73000 1088.519
65.90000 1862.709
66.07000 488.131
66.24000 381.630
66.41000 610.362
66.58000 386.269
66.75000 331.567
66.92000 365.227
67.09000 366.403
67.26000 382.680
67.43000 401.777
67.60000 429.184
67.77000 459.822
67.94000 476.535
68.11000 528.845
68.28000 562.136
68.45000 642.131
68.62000 909.430
68.79000 1636.220
68.96000 11274.325
69.13000 43465.949
69.30000 21927.088
69.47000 4569.583
69.64000 876.767
69.81000 606.402
69.98000 492.620
70.00000 498.384

File: BTO_Mapping_Theta2Theta_08-10-2025_001_58_9-135_-4-067.xy
20.00000 492.237
20.17000 490.759
20.34000 471.993
20.51000 476.504
20.68000 470.408
20.85000 456.632
21.02000 475.501
21.19000 466.022
21.36000 477.782
21.53000 495.554
21.70000 485.195
21.87000 513.494
22.04000 538.352
22.21000 504.158
22.38000 482.731
22.55000 449.194
22.72000 441.756
22.89000 446.785
23.06000 447.061
23.23000 441.952
23.40000 433.349
23.57000 445.248
23.74000 462.292
23.91000 512.796
24.08000 518.334
24.25000 481.744
24.42000 442.871
24.59000 429.476
24.76000 394.710
24.93000 402.508
25.10000 391.283
25.27000 397.381
25.44000 397.699
25.61000 384.331
25.78000 369.501
25.95000 389.603
26.12000 377.737
26.29000 383.903
26.46000 389.871
26.63000 372.207
26.80000 382.241
26.97000 386.360
27.14000 371.585
27.31000 350.094
27.48000 382.096
27.65000 371.635
27.82000 362.618
27.99000 399.339
28.16000 367.899
28.33000 357.379
28.50000 371.164
28.67000 351.563
28.84000 355.100
29.01000 359.406
29.18000 351.639
29.35000 349.213
29.52000 362.516
29.69000 359.089
29.86000 384.531
30.03000 396.147
30.20000 398.187
30.37000 400.764
30.54000 374.240
30.71000 377.305
30.88000 409.064
31.05000 510.917
31.22000 895.056
31.39000 1229.806
31.56000 846.690
31.73000 466.214
31.90000 353.250
32.07000 349.128
32.24000 351.301
32.41000 340.464
32.58000 319.756
32.75000 306.684
32.92000 325.136
33.09000 310.722
33.26000 312.628
33.43000 294.645
33.60000 325.770
33.77000 301.893
33.94000 312.964
34.11000 333.237
34.28000 348.442
34.45000 358.429
34.62000 326.272
34.79000 322.804
34.96000 268.837
35.13000 270.241
35.30000 269.792
35.47000 258.334
35.64000 267.126
35.81000 257.369
35.98000 268.115
36.15000 245.345
36.32000 252.204
36.49000 263.624
36.66000 263.552
36.83000 258.270
37.00000 278.612
37.17000 271.780
37.34000 252.646
37.51000 267.082
37.68000 253.579
37.85000 252.117
38.02000 264.617
38.19000 268.033
38.36000 322.255
38.53000 616.877
38.70000 1048.868
38.87000 762.741
39.04000 325.880
39.21000 237.883
39.38000 243.296
39.55000 226.123
39.72000 240.367
39.89000 227.056
40.06000 229.024
40.23000 231.777
40.40000 230.319
40.57000 200.430
40.74000 207.742
40.91000 213.169
41.08000 220.510
41.25000 213.591
41.42000 203.549
41.59000 200.640
41.76000 208.466
41.93000 209.354
42.10000 219.911
42.27000 194.882
42.44000 207.177
42.61000 223.068
42.78000 206.557
42.95000 212.771
43.12000 215.356
43.29000 197.278
43.46000 189.622
43.63000 174.364
43.80000 193.805
43.97000 194.859
44.14000 194.096
44.31000 197.949
44.48000 209.596
44.65000 225.100
44.82000 235.612
44.99000 238.683
45.16000 236.764
45.33000 229.747
45.50000 203.775
45.67000 196.127
45.84000 190.582
46.01000 171.394
46.18000 182.658
46.35000 177.891
46.52000 162.597
46.69000 177.396
46.86000 163.803
47.03000 170.574
47.20000 173.162
47.37000 163.457
47.54000 163.989
47.71000 160.500
47.88000 165.035
48.05000 150.952
48.22000 157.949
48.39000 161.116
48.56000 156.615
48.73000 160.894
48.90000 156.600
49.07000 154.188
49.24000 155.303
49.41000 157.384
49.58000 156.384
49.75000 155.083
49.92000 157.208
50.09000 153.915
50.26000 144.674
50.43000 153.181
50.60000 160.767
50.77000 159.737
50.94000 152.366
51.11000 147.326
51.28000 161.679
51.45000 139.267
51.62000 148.304
51.79000 143.168
51.96000 139.348
52.13000 143.461
52.30000 145.401
52.47000 139.317
52.64000 148.876
52.81000 143.225
52.98000 135.515
53.15000 144.518
53.32000 156.841
53.49000 153.140
53.66000 145.406
53.83000 141.764
54.00000 138.621
54.17000 144.051
54.34000 138.967
54.51000 135.490
54.68000 139.184
54.85000 127.938
55.02000 145.455
55.19000 151.075
55.36000 176.680
55.53000 231.639
55.70000 366.695
55.87000 570.224
56.04000 561.985
56.21000 337.903
56.38000 204.020
56.55000 152.950
56.72000 143.268
56.89000 128.331
57.06000 138.619
57.23000 130.833
57.40000 131.929
57.57000 122.783
57.74000 132.394
57.91000 126.861
58.08000 125.253
58.25000 125.277
58.42000 126.100
58.59000 115.929
58.76000 116.776
58.93000 116.148
59.10000 125.022
59.27000 125.080
59.44000 116.643
59.61000 119.149
59.78000 125.680
59.95000 113.578
60.12000 117.775
60.29000 111.117
60.46000 122.315
60.63000 110.263
60.80000 123.288
60.97000 118.149
61.14000 123.701
61.31000 129.327
61.48000 141.076
61.65000 274.363
61.82000 188.600
61.99000 121.441
62.16000 131.547
62.33000 126.123
62.50000 129.663
62.67000 131.635
62.84000 146.743
63.01000 128.625
63.18000 137.275
63.35000 133.122
63.52000 133.519
63.69000 138.833
63.86000 139.149
64.03000 147.527
64.20000 155.990
64.37000 160.243
64.54000 159.463
64.71000 157.430
64.88000 175.981
65.05000 190.918
65.22000 209.791
65.39000 256.257
65.56000 330.744
65.73000 981.129
65.90000 1888.221
66.07000 474.432
66.24000 387.659
66.41000 616.518
66.58000 412.337
66.75000 342.502
66.92000 346.511
67.09000 371.846
67.26000 384.221
67.43000 395.222
67.60000 423.795
67.77000 456.015
67.94000 485.658
68.11000 514.578
68.28000 572.509
68.45000 618.293
68.62000 867.927
68.79000 1555.527
68.96000 8863.783
69.13000 42038.035
69.30000 22618.783
69.47000 5554.979
69.64000 877.512
69.81000 612.757
69.98000 504.040
70.00000 496.848