Folder: Master-Thesis/XRD/XRD/08-10-2025 Dep 7/XY Data

File: BTO_Mapping_Theta2Theta_08-10-2025_001_02_10-000_0-000.xy
20.00000 480.218
20.17000 468.694
20.34000 477.267
20.51000 462.305
20.68000 463.519
20.85000 450.741
21.02000 459.006
21.19000 469.271
21.36000 472.428
21.53000 448.858
21.70000 472.692
21.87000 489.452
22.04000 509.455
22.21000 501.831
22.38000 497.034
22.55000 445.822
22.72000 447.062
22.89000 446.199
23.06000 445.539
23.23000 446.926
23.40000 453.688
23.57000 456.557
23.74000 472.385
23.91000 527.161
24.08000 550.676
24.25000 466.541
24.42000 443.002
24.59000 413.720
24.76000 427.171
24.93000 413.471
25.10000 409.973
25.27000 404.403
25.44000 381.429
25.61000 394.711
25.78000 399.309
25.95000 388.140
26.12000 382.306
26.29000 388.720
26.46000 390.916
26.63000 375.653
26.80000 387.058
26.97000 387.527
27.14000 373.137
27.31000 377.018
27.48000 390.662
27.65000 369.722
27.82000 361.800
27.99000 374.567
28.16000 360.549
28.33000 360.248
28.50000 355.190
28.67000 359.386
28.84000 349.088
29.01000 371.099
29.18000 332.151
29.35000 355.446
29.52000 360.819
29.69000 364.725
29.86000 380.941
30.03000 382.129
30.20000 377.004
30.37000 364.215
30.54000 368.754
30.71000 367.919
30.88000 405.771
31.05000 515.939
31.22000 900.140
31.39000 1244.052
31.56000 831.187
31.73000 502.269
31.90000 386.630
32.07000 353.962
32.24000 341.298
32.41000 329.515
32.58000 325.406
32.75000 315.427
32.92000 329.476
33.09000 308.548
33.26000 296.176
33.43000 300.015
33.60000 303.574
33.77000 302.219
33.94000 313.167
34.11000 339.267
34.28000 335.302
34.45000 347.272
34.62000 321.288
34.79000 293.755
34.96000 287.435
35.13000 293.663
35.30000 266.595
35.47000 273.166
35.64000 264.709
35.81000 280.453
35.98000 259.422
36.15000 258.278
36.32000 263.306
36.49000 261.611
36.66000 255.088
36.83000 267.018
37.00000 291.009
37.17000 278.435
37.34000 258.857
37.51000 263.623
37.68000 255.351
37.85000 259.145
38.02000 247.720
38.19000 260.186
38.36000 329.188
38.53000 614.201
38.70000 980.829
38.87000 686.732
39.04000 306.570
39.21000 253.866
39.38000 230.136
39.55000 244.178
39.72000 248.812
39.89000 221.305
40.06000 219.055
40.23000 224.174
40.40000 205.027
40.57000 211.834
40.74000 211.204
40.91000 219.552
41.08000 212.173
41.25000 215.820
41.42000 202.713
41.59000 210.937
41.76000 214.551
41.93000 218.199
42.10000 218.165
42.27000 221.101
42.44000 213.410
42.61000 222.025
42.78000 205.850
42.95000 194.429
43.12000 189.402
43.29000 194.918
43.46000 191.970
43.63000 199.425
43.80000 186.906
43.97000 183.671
44.14000 202.131
44.31000 191.933
44.48000 215.255
44.65000 223.130
44.82000 231.362
44.99000 240.588
45.16000 235.664
45.33000 244.719
45.50000 205.153
45.67000 200.913
45.84000 177.435
46.01000 179.122
46.18000 186.034
46.35000 173.672
46.52000 180.549
46.69000 176.807
46.86000 178.022
47.03000 169.451
47.20000 177.081
47.37000 165.044
47.54000 163.042
47.71000 167.811
47.88000 164.669
48.05000 153.014
48.22000 149.264
48.39000 147.087
48.56000 158.648
48.73000 157.983
48.90000 152.300
49.07000 153.572
49.24000 161.242
49.41000 151.200
49.58000 151.703
49.75000 154.417
49.92000 141.245
50.09000 155.005
50.26000 152.933
50.43000 155.560
50.60000 165.413
50.77000 164.864
50.94000 151.614
51.11000 154.143
51.28000 143.815
51.45000 157.376
51.62000 144.020
51.79000 138.285
51.96000 145.914
52.13000 134.202
52.30000 142.000
52.47000 142.559
52.64000 160.042
52.81000 138.450
52.98000 142.267
53.15000 156.154
53.32000 154.916
53.49000 145.881
53.66000 149.477
53.83000 141.421
54.00000 157.554
54.17000 140.775
54.34000 137.604
54.51000 135.263
54.68000 140.127
54.85000 143.890
55.02000 153.919
55.19000 151.868
55.36000 174.154
55.53000 223.113
55.70000 360.042
55.87000 566.230
56.04000 518.318
56.21000 320.907
56.38000 195.873
56.55000 158.350
56.72000 146.685
56.89000 139.717
57.06000 127.380
57.23000 126.363
57.40000 123.385
57.57000 125.853
57.74000 125.700
57.91000 126.803
58.08000 129.902
58.25000 129.095
58.42000 121.987
58.59000 125.420
58.76000 119.061
58.93000 120.441
59.10000 117.143
59.27000 126.232
59.44000 121.452
59.61000 116.350
59.78000 113.602
59.95000 122.586
60.12000 123.151
60.29000 120.342
60.46000 109.826
60.63000 118.534
60.80000 120.978
60.97000 119.838
61.14000 128.973
61.31000 129.633
61.48000 142.963
61.65000 263.705
61.82000 202.655
61.99000 122.225
62.16000 131.719
62.33000 127.126
62.50000 127.824
62.67000 129.262
62.84000 124.676
63.01000 128.201
63.18000 139.233
63.35000 137.583
63.52000 135.566
63.69000 142.801
63.86000 141.813
64.03000 151.998
64.20000 139.012
64.37000 154.564
64.54000 153.643
64.71000 169.911
64.88000 183.817
65.05000 201.868
65.22000 220.134
65.39000 251.443
65.56000 315.284
65.73000 995.492
65.90000 1865.735
66.07000 461.231
66.24000 355.069
66.41000 622.490
66.58000 399.676
66.75000 351.578
66.92000 345.941
67.09000 380.666
67.26000 363.889
67.43000 418.823
67.60000 429.479
67.77000 450.767
67.94000 492.373
68.11000 489.815
68.28000 552.118
68.45000 650.492
68.62000 879.533
68.79000 1552.569
68.96000 9000.220
69.13000 42752.633
69.30000 22725.508
69.47000 5474.251
69.64000 875.529
69.81000 624.048
69.98000 496.083
70.00000 489.039

File: BTO_Mapping_Theta2Theta_08-10-2025_001_03_20-000_0-000.xy
20.00000 481.449
20.17000 501.927
20.34000 462.136
20.51000 471.136
20.68000 476.490
20.85000 458.143
21.02000 483.903
21.19000 461.656
21.36000 457.931
21.53000 454.963
21.70000 477.524
21.87000 488.986
22.04000 506.205
22.21000 520.393
22.38000 477.302
22.55000 458.278
22.72000 427.653
22.89000 459.152
23.06000 460.247
23.23000 443.129
23.40000 454.957
23.57000 451.200
23.74000 504.728
23.91000 538.170
24.08000 541.922
24.25000 483.294
24.42000 440.263
24.59000 429.854
24.76000 415.746
24.93000 404.719
25.10000 408.132
25.27000 402.102
25.44000 399.753
25.61000 414.751
25.78000 413.769
25.95000 391.075
26.12000 402.253
26.29000 386.505
26.46000 381.181
26.63000 390.488
26.80000 393.532
26.97000 377.041
27.14000 371.038
27.31000 376.195
27.48000 360.946
27.65000 368.328
27.82000 374.352
27.99000 364.629
28.16000 370.199
28.33000 367.941
28.50000 373.862
28.67000 363.919
28.84000 370.149
29.01000 364.918
29.18000 372.487
29.35000 344.815
29.52000 355.606
29.69000 355.715
29.86000 359.341
30.03000 394.867
30.20000 392.078
30.37000 371.319
30.54000 372.948
30.71000 375.309
30.88000 413.650
31.05000 525.605
31.22000 859.172
31.39000 1045.941
31.56000 736.361
31.73000 449.804
31.90000 383.444
32.07000 370.441
32.24000 331.762
32.41000 329.592
32.58000 321.116
32.75000 317.951
32.92000 309.623
33.09000 312.072
33.26000 312.073
33.43000 304.826
33.60000 300.583
33.77000 305.065
33.94000 311.252
34.11000 334.689
34.28000 341.990
34.45000 333.780
34.62000 307.039
34.79000 287.929
34.96000 279.987
35.13000 283.946
35.30000 266.011
35.47000 276.736
35.64000 272.825
35.81000 262.080
35.98000 275.688
36.15000 265.284
36.32000 270.822
36.49000 249.315
36.66000 255.942
36.83000 271.157
37.00000 284.446
37.17000 266.806
37.34000 245.871
37.51000 248.012
37.68000 265.994
37.85000 256.633
38.02000 263.322
38.19000 277.073
38.36000 331.642
38.53000 569.537
38.70000 837.677
38.87000 569.532
39.04000 283.370
39.21000 266.336
39.38000 258.454
39.55000 237.752
39.72000 238.131
39.89000 226.245
40.06000 240.611
40.23000 221.286
40.40000 215.087
40.57000 223.261
40.74000 219.126
40.91000 221.992
41.08000 221.806
41.25000 215.314
41.42000 198.676
41.59000 218.933
41.76000 215.376
41.93000 219.039
42.10000 221.493
42.27000 222.296
42.44000 210.082
42.61000 216.743
42.78000 213.370
42.95000 205.118
43.12000 194.225
43.29000 190.750
43.46000 198.775
43.63000 187.167
43.80000 184.142
43.97000 197.439
44.14000 209.630
44.31000 204.834
44.48000 206.456
44.65000 223.795
44.82000 244.666
44.99000 241.652
45.16000 226.973
45.33000 233.481
45.50000 208.243
45.67000 199.193
45.84000 178.430
46.01000 182.253
46.18000 174.612
46.35000 180.737
46.52000 183.893
46.69000 182.259
46.86000 180.288
47.03000 170.765
47.20000 156.689
47.37000 165.955
47.54000 167.542
47.71000 163.139
47.88000 171.873
48.05000 166.612
48.22000 174.670
48.39000 161.191
48.56000 157.112
48.73000 167.822
48.90000 161.628
49.07000 164.765
49.24000 167.483
49.41000 158.341
49.58000 150.781
49.75000 165.389
49.92000 166.531
50.09000 152.445
50.26000 155.415
50.43000 154.079
50.60000 164.708
50.77000 175.483
50.94000 148.297
51.11000 154.474
51.28000 136.782
51.45000 151.334
51.62000 136.219
51.79000 140.762
51.96000 139.877
52.13000 138.369
52.30000 157.235
52.47000 146.328
52.64000 136.374
52.81000 139.909
52.98000 139.568
53.15000 156.309
53.32000 148.882
53.49000 154.462
53.66000 149.761
53.83000 146.909
54.00000 145.369
54.17000 127.179
54.34000 130.653
54.51000 139.915
54.68000 139.514
54.85000 149.527
55.02000 154.571
55.19000 155.789
55.36000 170.883
55.53000 211.211
55.70000 294.544
55.87000 413.464
56.04000 387.516
56.21000 265.273
56.38000 191.547
56.55000 149.255
56.72000 149.385
56.89000 152.041
57.06000 139.458
57.23000 127.835
57.40000 131.731
57.57000 125.536
57.74000 125.088
57.91000 117.398
58.08000 119.133
58.25000 122.093
58.42000 129.469
58.59000 130.077
58.76000 123.298
58.93000 122.742
59.10000 127.410
59.27000 113.658
59.44000 115.720
59.61000 121.814
59.78000 111.216
59.95000 117.441
60.12000 112.139
60.29000 125.426
60.46000 121.184
60.63000 115.447
60.80000 119.848
60.97000 127.363
61.14000 123.895
61.31000 136.291
61.48000 129.643
61.65000 285.753
61.82000 189.292
61.99000 135.215
62.16000 129.252
62.33000 129.477
62.50000 122.881
62.67000 135.481
62.84000 132.217
63.01000 132.376
63.18000 146.132
63.35000 136.697
63.52000 126.417
63.69000 144.872
63.86000 143.028
64.03000 145.961
64.20000 150.122
64.37000 154.827
64.54000 166.388
64.71000 170.215
64.88000 174.076
65.05000 194.695
65.22000 225.962
65.39000 252.065
65.56000 316.286
65.73000 1090.002
65.90000 1926.650
66.07000 477.212
66.24000 391.252
66.41000 641.849
66.58000 390.870
66.75000 341.231
66.92000 363.482
67.09000 372.986
67.26000 399.104
67.43000 400.078
67.60000 443.601
67.77000 444.279
67.94000 475.074
68.11000 526.500
68.28000 576.649
68.45000 665.748
68.62000 921.763
68.79000 1632.777
68.96000 10717.531
69.13000 44353.727
69.30000 22934.979
69.47000 4989.165
69.64000 902.672
69.81000 611.522
69.98000 512.562
70.00000 504.223

File: BTO_Mapping_Theta2Theta_08-10-2025_001_04_30-000_0-000.xy
20.00000 466.285
20.17000 478.044
20.34000 465.786
20.51000 481.145
20.68000 485.681
20.85000 464.043
21.02000 486.440
21.19000 475.233
21.36000 437.071
21.53000 475.005
21.70000 479.030
21.87000 488.159
22.04000 518.939
22.21000 492.634
22.38000 460.759
22.55000 463.400
22.72000 456.981
22.89000 451.439
23.06000 460.977
23.23000 461.166
23.40000 453.449
23.57000 455.564
23.74000 495.838
23.91000 562.490
24.08000 521.827
24.25000 465.597
24.42000 434.598
24.59000 428.801
24.76000 408.421
24.93000 436.566
25.10000 404.865
25.27000 413.568
25.44000 409.250
25.61000 403.239
25.78000 376.528
25.95000 398.049
26.12000 381.118
26.29000 398.209
26.46000 406.182
26.63000 380.211
26.80000 387.536
26.97000 395.458
27.14000 372.872
27.31000 366.542
27.48000 370.240
27.65000 381.161
27.82000 359.444
27.99000 383.197
28.16000 358.299
28.33000 387.321
28.50000 357.686
28.67000 366.940
28.84000 374.498
29.01000 369.961
29.18000 358.026
29.35000 357.004
29.52000 364.258
29.69000 360.365
29.86000 378.181
30.03000 386.627
30.20000 374.004
30.37000 383.499
30.54000 377.424
30.71000 373.978
30.88000 445.563
31.05000 536.544
31.22000 869.439
31.39000 988.435
31.56000 698.177
31.73000 458.246
31.90000 381.118
32.07000 375.036
32.24000 377.621
32.41000 352.311
32.58000 329.411
32.75000 325.767
32.92000 322.838
33.09000 312.084
33.26000 306.721
33.43000 306.608
33.60000 300.674
33.77000 313.010
33.94000 326.637
34.11000 310.424
34.28000 331.961
34.45000 331.322
34.62000 297.244
34.79000 293.324
34.96000 283.185
35.13000 257.551
35.30000 266.479
35.47000 256.939
35.64000 258.705
35.81000 255.413
35.98000 260.810
36.15000 258.043
36.32000 256.377
36.49000 250.105
36.66000 269.276
36.83000 259.652
37.00000 275.560
37.17000 252.793
37.34000 252.702
37.51000 260.067
37.68000 249.109
37.85000 246.123
38.02000 248.414
38.19000 270.396
38.36000 321.063
38.53000 524.225
38.70000 725.399
38.87000 458.919
39.04000 278.376
39.21000 247.382
39.38000 252.585
39.55000 247.138
39.72000 233.323
39.89000 238.809
40.06000 235.397
40.23000 229.351
40.40000 216.175
40.57000 211.176
40.74000 206.048
40.91000 218.200
41.08000 212.566
41.25000 212.139
41.42000 213.228
41.59000 226.964
41.76000 208.711
41.93000 213.813
42.10000 215.990
42.27000 226.324
42.44000 215.334
42.61000 229.053
42.78000 207.916
42.95000 209.173
43.12000 207.490
43.29000 199.029
43.46000 192.187
43.63000 179.037
43.80000 193.388
43.97000 194.124
44.14000 206.537
44.31000 207.885
44.48000 210.023
44.65000 216.697
44.82000 239.246
44.99000 245.855
45.16000 233.236
45.33000 223.222
45.50000 209.522
45.67000 202.320
45.84000 186.033
46.01000 194.681
46.18000 178.351
46.35000 180.968
46.52000 190.131
46.69000 161.159
46.86000 169.000
47.03000 169.724
47.20000 166.683
47.37000 168.820
47.54000 173.649
47.71000 158.077
47.88000 165.330
48.05000 164.909
48.22000 184.474
48.39000 166.853
48.56000 156.042
48.73000 166.140
48.90000 157.254
49.07000 160.509
49.24000 158.755
49.41000 164.289
49.58000 162.093
49.75000 166.589
49.92000 154.394
50.09000 153.512
50.26000 152.550
50.43000 164.995
50.60000 164.920
50.77000 168.202
50.94000 163.232
51.11000 156.800
51.28000 152.340
51.45000 149.047
51.62000 142.226
51.79000 135.723
51.96000 143.516
52.13000 145.622
52.30000 156.006
52.47000 146.937
52.64000 141.389
52.81000 144.151
52.98000 150.676
53.15000 133.079
53.32000 143.756
53.49000 141.682
53.66000 151.328
53.83000 143.234
54.00000 151.204
54.17000 133.815
54.34000 147.974
54.51000 138.938
54.68000 143.244
54.85000 139.922
55.02000 156.128
55.19000 153.413
55.36000 165.258
55.53000 193.737
55.70000 258.550
55.87000 319.932
56.04000 306.605
56.21000 232.085
56.38000 172.514
56.55000 163.060
56.72000 135.872
56.89000 136.364
57.06000 125.167
57.23000 138.248
57.40000 125.928
57.57000 127.539
57.74000 122.873
57.91000 124.379
58.08000 128.862
58.25000 122.101
58.42000 122.952
58.59000 121.277
58.76000 112.977
58.93000 120.809
59.10000 132.298
59.27000 121.995
59.44000 129.844
59.61000 117.752
59.78000 124.660
59.95000 118.116
60.12000 126.120
60.29000 124.770
60.46000 117.871
60.63000 118.036
60.80000 120.538
60.97000 123.004
61.14000 137.229
61.31000 125.110
61.48000 135.562
61.65000 283.691
61.82000 186.966
61.99000 130.675
62.16000 128.528
62.33000 131.387
62.50000 136.224
62.67000 137.110
62.84000 136.973
63.01000 145.683
63.18000 128.925
63.35000 129.155
63.52000 144.057
63.69000 137.030
63.86000 145.998
64.03000 151.784
64.20000 152.874
64.37000 154.433
64.54000 159.804
64.71000 166.502
64.88000 195.759
65.05000 210.097
65.22000 220.758
65.39000 255.948
65.56000 325.781
65.73000 1151.661
65.90000 1945.884
66.07000 444.620
66.24000 389.277
66.41000 618.466
66.58000 397.924
66.75000 345.404
66.92000 366.484
67.09000 390.906
67.26000 402.220
67.43000 405.823
67.60000 445.555
67.77000 471.353
67.94000 491.415
68.11000 527.271
68.28000 562.708
68.45000 655.330
68.62000 963.005
68.79000 1711.860
68.96000 12129.084
69.13000 45217.930
69.30000 22971.938
69.47000 4585.790
69.64000 892.141
69.81000 618.854
69.98000 506.443
70.00000 488.271

File: BTO_Mapping_Theta2Theta_08-10-2025_001_05_40-000_0-000.xy
20.00000 464.221
20.17000 493.463
20.34000 463.432
20.51000 466.947
20.68000 460.645
20.85000 467.978
21.02000 481.909
21.19000 469.343
21.36000 468.788
21.53000 465.038
21.70000 476.233
21.87000 489.591
22.04000 493.925
22.21000 490.588
22.38000 464.422
22.55000 452.831
22.72000 440.493
22.89000 451.115
23.06000 442.915
23.23000 447.321
23.40000 452.075
23.57000 469.193
23.74000 498.061
23.91000 515.392
24.08000 510.470
24.25000 477.813
24.42000 423.945
24.59000 410.272
24.76000 425.025
24.93000 399.283
25.10000 404.641
25.27000 409.206
25.44000 413.921
25.61000 403.389
25.78000 414.496
25.95000 399.163
26.12000 401.684
26.29000 382.146
26.46000 399.157
26.63000 388.168
26.80000 370.957
26.97000 391.064
27.14000 372.013
27.31000 371.179
27.48000 381.243
27.65000 400.043
27.82000 378.294
27.99000 370.043
28.16000 380.507
28.33000 364.912
28.50000 389.025
28.67000 372.321
28.84000 369.376
29.01000 367.760
29.18000 372.146
29.35000 388.920
29.52000 356.746
29.69000 376.341
29.86000 377.349
30.03000 367.696
30.20000 370.380
30.37000 385.475
30.54000 393.412
30.71000 398.667
30.88000 427.267
31.05000 551.179
31.22000 848.879
31.39000 947.006
31.56000 656.069
31.73000 449.905
31.90000 382.609
32.07000 371.876
32.24000 359.446
32.41000 329.529
32.58000 326.209
32.75000 320.174
32.92000 332.962
33.09000 298.475
33.26000 288.351
33.43000 295.364
33.60000 299.715
33.77000 306.810
33.94000 319.392
34.11000 323.552
34.28000 334.923
34.45000 305.111
34.62000 302.815
34.79000 283.651
34.96000 286.265
35.13000 271.154
35.30000 271.091
35.47000 269.361
35.64000 266.036
35.81000 265.374
35.98000 270.938
36.15000 268.616
36.32000 263.143
36.49000 237.990
36.66000 253.321
36.83000 271.924
37.00000 254.397
37.17000 249.324
37.34000 265.355
37.51000 264.039
37.68000 250.273
37.85000 264.141
38.02000 262.608
38.19000 270.498
38.36000 312.512
38.53000 456.332
38.70000 570.595
38.87000 371.039
39.04000 269.690
39.21000 249.010
39.38000 241.170
39.55000 224.322
39.72000 237.150
39.89000 240.197
40.06000 233.324
40.23000 225.768
40.40000 220.734
40.57000 218.904
40.74000 219.740
40.91000 224.674
41.08000 221.367
41.25000 204.848
41.42000 202.231
41.59000 212.582
41.76000 212.538
41.93000 218.702
42.10000 222.641
42.27000 216.441
42.44000 214.908
42.61000 216.024
42.78000 213.392
42.95000 204.128
43.12000 205.544
43.29000 196.662
43.46000 195.500
43.63000 191.201
43.80000 208.971
43.97000 210.104
44.14000 193.600
44.31000 191.387
44.48000 217.549
44.65000 217.098
44.82000 215.107
44.99000 226.530
45.16000 227.703
45.33000 208.303
45.50000 214.414
45.67000 194.371
45.84000 184.506
46.01000 173.120
46.18000 177.736
46.35000 168.921
46.52000 179.368
46.69000 184.773
46.86000 166.732
47.03000 162.509
47.20000 178.077
47.37000 167.544
47.54000 166.019
47.71000 169.540
47.88000 160.394
48.05000 153.909
48.22000 156.912
48.39000 161.851
48.56000 170.069
48.73000 149.666
48.90000 157.537
49.07000 163.396
49.24000 154.620
49.41000 160.750
49.58000 166.927
49.75000 150.915
49.92000 145.316
50.09000 155.497
50.26000 149.552
50.43000 167.948
50.60000 174.691
50.77000 161.536
50.94000 159.920
51.11000 161.536
51.28000 144.667
51.45000 151.575
51.62000 144.532
51.79000 147.624
51.96000 133.447
52.13000 154.382
52.30000 143.902
52.47000 140.173
52.64000 137.192
52.81000 145.729
52.98000 147.429
53.15000 143.053
53.32000 143.255
53.49000 147.634
53.66000 132.224
53.83000 146.168
54.00000 149.462
54.17000 132.762
54.34000 147.072
54.51000 137.924
54.68000 140.866
54.85000 145.746
55.02000 145.293
55.19000 156.487
55.36000 180.094
55.53000 162.706
55.70000 230.157
55.87000 264.144
56.04000 236.933
56.21000 188.206
56.38000 167.716
56.55000 144.804
56.72000 145.734
56.89000 126.048
57.06000 135.434
57.23000 130.609
57.40000 132.999
57.57000 136.296
57.74000 130.128
57.91000 121.580
58.08000 131.921
58.25000 129.065
58.42000 121.725
58.59000 117.159
58.76000 119.174
58.93000 115.716
59.10000 125.497
59.27000 123.330
59.44000 121.352
59.61000 113.022
59.78000 112.185
59.95000 123.581
60.12000 113.798
60.29000 118.937
60.46000 128.369
60.63000 116.647
60.80000 129.002
60.97000 115.163
61.14000 123.645
61.31000 130.798
61.48000 143.495
61.65000 284.606
61.82000 164.361
61.99000 133.528
62.16000 125.715
62.33000 138.688
62.50000 130.172
62.67000 139.691
62.84000 136.001
63.01000 126.276
63.18000 142.584
63.35000 133.240
63.52000 145.882
63.69000 147.278
63.86000 141.234
64.03000 149.144
64.20000 158.279
64.37000 151.906
64.54000 168.879
64.71000 169.981
64.88000 182.379
65.05000 197.320
65.22000 213.346
65.39000 263.473
65.56000 329.136
65.73000 1229.291
65.90000 1984.868
66.07000 463.599
66.24000 389.529
66.41000 631.809
66.58000 404.965
66.75000 350.973
66.92000 354.791
67.09000 389.999
67.26000 408.904
67.43000 439.188
67.60000 470.148
67.77000 472.331
67.94000 517.417
68.11000 542.486
68.28000 583.014
68.45000 675.209
68.62000 977.720
68.79000 1695.750
68.96000 13595.463
69.13000 46592.016
69.30000 22890.975
69.47000 4215.412
69.64000 906.045
69.81000 618.039
69.98000 486.169
70.00000 476.751

File: BTO_Mapping_Theta2Theta_08-10-2025_001_06_9-135_4-067.xy
20.00000 477.055
20.17000 487.998
20.34000 466.207
20.51000 474.191
20.68000 457.483
20.85000 455.286
21.02000 454.380
21.19000 473.328
21.36000 467.728
21.53000 448.021
21.70000 469.408
21.87000 479.164
22.04000 522.233
22.21000 503.763
22.38000 472.694
22.55000 451.542
22.72000 430.824
22.89000 454.444
23.06000 434.392
23.23000 429.830
23.40000 459.918
23.57000 437.540
23.74000 467.576
23.91000 521.334
24.08000 511.177
24.25000 484.515
24.42000 441.844
24.59000 414.154
24.76000 421.942
24.93000 408.546
25.10000 405.787
25.27000 426.383
25.44000 416.733
25.61000 408.142
25.78000 375.500
25.95000 376.517
26.12000 396.973
26.29000 389.405
26.46000 379.936
26.63000 384.596
26.80000 380.470
26.97000 383.618
27.14000 362.785
27.31000 372.659
27.48000 376.984
27.65000 357.060
27.82000 385.115
27.99000 377.549
28.16000 354.036
28.33000 359.122
28.50000 370.864
28.67000 358.696
28.84000 354.312
29.01000 357.611
29.18000 333.222
29.35000 349.418
29.52000 344.164
29.69000 354.066
29.86000 367.323
30.03000 399.504
30.20000 379.431
30.37000 359.554
30.54000 361.070
30.71000 383.025
30.88000 419.694
31.05000 517.281
31.22000 876.842
31.39000 1237.557
31.56000 838.401
31.73000 443.487
31.90000 374.370
32.07000 350.371
32.24000 347.402
32.41000 328.453
32.58000 340.192
32.75000 317.304
32.92000 324.190
33.09000 299.279
33.26000 293.912
33.43000 295.611
33.60000 293.298
33.77000 307.623
33.94000 319.230
34.11000 317.064
34.28000 341.601
34.45000 349.527
34.62000 303.047
34.79000 310.348
34.96000 272.729
35.13000 274.641
35.30000 260.783
35.47000 267.706
35.64000 265.965
35.81000 257.610
35.98000 262.553
36.15000 270.554
36.32000 261.341
36.49000 252.541
36.66000 248.230
36.83000 261.693
37.00000 260.106
37.17000 278.093
37.34000 253.666
37.51000 258.281
37.68000 262.020
37.85000 262.697
38.02000 266.402
38.19000 247.724
38.36000 323.102
38.53000 610.247
38.70000 992.351
38.87000 698.816
39.04000 307.829
39.21000 252.453
39.38000 227.466
39.55000 246.904
39.72000 240.895
39.89000 231.760
40.06000 228.518
40.23000 225.047
40.40000 219.139
40.57000 219.592
40.74000 218.337
40.91000 218.004
41.08000 213.095
41.25000 210.946
41.42000 198.617
41.59000 207.617
41.76000 215.864
41.93000 214.497
42.10000 206.770
42.27000 213.248
42.44000 213.480
42.61000 214.341
42.78000 219.617
42.95000 209.585
43.12000 205.153
43.29000 203.846
43.46000 196.459
43.63000 200.968
43.80000 200.729
43.97000 191.352
44.14000 196.395
44.31000 187.284
44.48000 205.674
44.65000 227.141
44.82000 224.892
44.99000 238.581
45.16000 230.949
45.33000 214.162
45.50000 200.870
45.67000 199.048
45.84000 187.519
46.01000 179.382
46.18000 178.679
46.35000 180.761
46.52000 181.631
46.69000 182.395
46.86000 167.312
47.03000 171.766
47.20000 166.872
47.37000 169.423
47.54000 161.927
47.71000 165.403
47.88000 153.645
48.05000 167.194
48.22000 142.684
48.39000 155.224
48.56000 163.076
48.73000 151.047
48.90000 152.750
49.07000 158.668
49.24000 158.702
49.41000 147.494
49.58000 156.002
49.75000 161.075
49.92000 163.375
50.09000 145.873
50.26000 151.131
50.43000 163.317
50.60000 162.753
50.77000 154.499
50.94000 157.592
51.11000 154.703
51.28000 148.346
51.45000 145.653
51.62000 150.560
51.79000 138.967
51.96000 140.862
52.13000 138.597
52.30000 135.451
52.47000 138.854
52.64000 147.069
52.81000 142.896
52.98000 138.351
53.15000 149.738
53.32000 148.302
53.49000 156.868
53.66000 150.896
53.83000 144.670
54.00000 140.338
54.17000 139.891
54.34000 135.422
54.51000 137.871
54.68000 138.550
54.85000 144.476
55.02000 146.634
55.19000 149.584
55.36000 167.143
55.53000 214.247
55.70000 340.999
55.87000 517.326
56.04000 529.934
56.21000 312.614
56.38000 200.678
56.55000 164.135
56.72000 146.087
56.89000 131.155
57.06000 137.239
57.23000 128.839
57.40000 127.949
57.57000 133.257
57.74000 127.037
57.91000 120.080
58.08000 123.437
58.25000 124.403
58.42000 126.101
58.59000 124.480
58.76000 124.305
58.93000 116.198
59.10000 117.821
59.27000 114.078
59.44000 114.591
59.61000 124.988
59.78000 117.087
59.95000 128.296
60.12000 116.410
60.29000 121.918
60.46000 115.419
60.63000 111.957
60.80000 113.957
60.97000 117.532
61.14000 124.596
61.31000 134.659
61.48000 134.145
61.65000 260.775
61.82000 212.825
61.99000 139.553
62.16000 129.954
62.33000 122.869
62.50000 126.538
62.67000 129.535
62.84000 131.832
63.01000 125.243
63.18000 136.026
63.35000 130.636
63.52000 123.724
63.69000 139.572
63.86000 137.807
64.03000 141.201
64.20000 142.289
64.37000 154.100
64.54000 149.659
64.71000 158.211
64.88000 171.396
65.05000 185.025
65.22000 216.614
65.39000 255.046
65.56000 315.423
65.73000 990.247
65.90000 1878.511
66.07000 460.192
66.24000 359.539
66.41000 598.830
66.58000 411.197
66.75000 346.951
66.92000 343.672
67.09000 367.426
67.26000 391.753
67.43000 397.727
67.60000 423.570
67.77000 436.679
67.94000 491.274
68.11000 500.158
68.28000 551.461
68.45000 636.256
68.62000 855.789
68.79000 1533.776
68.96000 8625.729
69.13000 42292.313
69.30000 22917.500
69.47000 5682.081
69.64000 891.741
69.81000 607.791
69.98000 512.598
70.00000 507.193