Folder: Master-Thesis/XRD/XRD/08-10-2025 Dep 7/XY Data (part 5)

File: BTO_Mapping_Theta2Theta_08-10-2025_001_37_-39-126_-8-316.xy
20.00000 479.034
20.17000 468.175
20.34000 457.752
20.51000 481.367
20.68000 472.900
20.85000 466.682
21.02000 477.817
21.19000 487.556
21.36000 477.896
21.53000 485.627
21.70000 550.149
21.87000 741.599
22.04000 806.238
22.21000 597.024
22.38000 504.238
22.55000 437.404
22.72000 444.172
22.89000 433.939
23.06000 427.214
23.23000 425.296
23.40000 426.837
23.57000 419.719
23.74000 408.818
23.91000 426.526
24.08000 430.889
24.25000 412.584
24.42000 417.062
24.59000 419.430
24.76000 399.308
24.93000 431.961
25.10000 403.964
25.27000 393.667
25.44000 395.557
25.61000 394.724
25.78000 399.234
25.95000 382.362
26.12000 391.288
26.29000 381.090
26.46000 397.064
26.63000 383.827
26.80000 400.016
26.97000 395.031
27.14000 371.533
27.31000 383.513
27.48000 377.807
27.65000 378.684
27.82000 369.813
27.99000 375.971
28.16000 372.768
28.33000 372.123
28.50000 376.450
28.67000 376.320
28.84000 380.576
29.01000 370.884
29.18000 349.299
29.35000 356.155
29.52000 364.724
29.69000 400.326
29.86000 470.095
30.03000 495.619
30.20000 443.761
30.37000 426.862
30.54000 431.262
30.71000 437.429
30.88000 544.049
31.05000 1241.305
31.22000 3486.332
31.39000 3847.859
31.56000 1595.913
31.73000 635.776
31.90000 379.650
32.07000 347.363
32.24000 332.609
32.41000 323.868
32.58000 324.753
32.75000 313.544
32.92000 331.468
33.09000 318.837
33.26000 300.260
33.43000 293.250
33.60000 286.126
33.77000 296.828
33.94000 277.611
34.11000 278.850
34.28000 283.314
34.45000 279.861
34.62000 268.793
34.79000 274.283
34.96000 270.212
35.13000 280.570
35.30000 266.357
35.47000 263.508
35.64000 267.694
35.81000 259.000
35.98000 252.561
36.15000 267.653
36.32000 269.448
36.49000 243.613
36.66000 264.111
36.83000 259.530
37.00000 258.766
37.17000 248.728
37.34000 244.332
37.51000 251.263
37.68000 245.547
37.85000 251.813
38.02000 240.211
38.19000 260.470
38.36000 322.497
38.53000 445.382
38.70000 466.799
38.87000 334.868
39.04000 263.000
39.21000 239.234
39.38000 230.608
39.55000 218.301
39.72000 225.725
39.89000 234.231
40.06000 216.445
40.23000 229.800
40.40000 219.797
40.57000 215.120
40.74000 216.263
40.91000 206.194
41.08000 204.270
41.25000 218.598
41.42000 205.201
41.59000 220.856
41.76000 202.118
41.93000 188.685
42.10000 208.298
42.27000 215.545
42.44000 202.349
42.61000 204.680
42.78000 211.445
42.95000 205.143
43.12000 219.609
43.29000 206.733
43.46000 207.963
43.63000 199.066
43.80000 200.645
43.97000 202.161
44.14000 209.803
44.31000 218.802
44.48000 259.414
44.65000 363.106
44.82000 507.129
44.99000 469.801
45.16000 371.126
45.33000 286.567
45.50000 244.715
45.67000 222.776
45.84000 203.431
46.01000 193.318
46.18000 178.811
46.35000 173.599
46.52000 182.038
46.69000 181.474
46.86000 168.281
47.03000 176.485
47.20000 171.432
47.37000 171.812
47.54000 165.710
47.71000 163.240
47.88000 168.780
48.05000 180.036
48.22000 164.923
48.39000 168.058
48.56000 161.060
48.73000 158.779
48.90000 160.528
49.07000 160.278
49.24000 160.227
49.41000 161.530
49.58000 168.114
49.75000 158.704
49.92000 154.600
50.09000 173.389
50.26000 212.547
50.43000 243.373
50.60000 273.611
50.77000 220.850
50.94000 179.998
51.11000 173.774
51.28000 157.667
51.45000 156.339
51.62000 140.504
51.79000 151.143
51.96000 155.596
52.13000 144.077
52.30000 142.618
52.47000 135.077
52.64000 144.151
52.81000 142.182
52.98000 154.935
53.15000 157.324
53.32000 154.775
53.49000 153.848
53.66000 141.430
53.83000 146.018
54.00000 155.902
54.17000 132.273
54.34000 139.470
54.51000 137.618
54.68000 150.678
54.85000 139.720
55.02000 161.023
55.19000 159.447
55.36000 231.854
55.53000 399.049
55.70000 578.527
55.87000 589.071
56.04000 415.631
56.21000 256.202
56.38000 186.894
56.55000 149.394
56.72000 147.891
56.89000 127.564
57.06000 139.126
57.23000 123.643
57.40000 124.361
57.57000 124.254
57.74000 130.642
57.91000 118.934
58.08000 121.311
58.25000 123.347
58.42000 121.332
58.59000 120.700
58.76000 120.188
58.93000 124.583
59.10000 120.868
59.27000 120.278
59.44000 118.090
59.61000 111.602
59.78000 120.683
59.95000 126.332
60.12000 122.482
60.29000 123.001
60.46000 108.137
60.63000 122.397
60.80000 120.847
60.97000 118.596
61.14000 127.640
61.31000 120.454
61.48000 137.985
61.65000 361.918
61.82000 301.740
61.99000 135.041
62.16000 143.584
62.33000 141.965
62.50000 140.808
62.67000 147.906
62.84000 141.123
63.01000 136.106
63.18000 141.825
63.35000 138.968
63.52000 138.043
63.69000 143.031
63.86000 150.435
64.03000 154.633
64.20000 151.679
64.37000 156.493
64.54000 177.824
64.71000 184.671
64.88000 237.556
65.05000 303.700
65.22000 401.029
65.39000 457.125
65.56000 497.450
65.73000 1169.292
65.90000 2976.641
66.07000 938.529
66.24000 488.747
66.41000 826.511
66.58000 605.761
66.75000 425.821
66.92000 438.378
67.09000 451.450
67.26000 462.687
67.43000 488.925
67.60000 517.283
67.77000 557.465
67.94000 576.507
68.11000 608.590
68.28000 673.725
68.45000 742.864
68.62000 1037.377
68.79000 2118.014
68.96000 9112.125
69.13000 66260.531
69.30000 45609.621
69.47000 15764.938
69.64000 1307.927
69.81000 767.944
69.98000 585.060
70.00000 578.502

File: BTO_Mapping_Theta2Theta_08-10-2025_001_38_-8-090_-5-878.xy
20.00000 468.178
20.17000 466.815
20.34000 463.846
20.51000 471.237
20.68000 468.169
20.85000 475.621
21.02000 461.029
21.19000 451.462
21.36000 463.613
21.53000 461.908
21.70000 488.666
21.87000 496.031
22.04000 532.689
22.21000 537.578
22.38000 484.194
22.55000 462.541
22.72000 430.101
22.89000 438.035
23.06000 449.092
23.23000 416.729
23.40000 427.397
23.57000 446.209
23.74000 444.558
23.91000 467.823
24.08000 474.426
24.25000 430.552
24.42000 436.501
24.59000 401.812
24.76000 415.315
24.93000 403.833
25.10000 407.876
25.27000 392.301
25.44000 409.284
25.61000 412.174
25.78000 379.624
25.95000 397.197
26.12000 395.276
26.29000 380.161
26.46000 370.949
26.63000 391.511
26.80000 380.073
26.97000 365.449
27.14000 368.734
27.31000 374.887
27.48000 378.973
27.65000 352.298
27.82000 362.311
27.99000 365.568
28.16000 363.633
28.33000 368.092
28.50000 363.177
28.67000 360.270
28.84000 345.974
29.01000 333.055
29.18000 359.663
29.35000 356.107
29.52000 356.511
29.69000 355.657
29.86000 383.916
30.03000 397.498
30.20000 382.999
30.37000 363.356
30.54000 377.846
30.71000 365.054
30.88000 419.626
31.05000 547.204
31.22000 1067.817
31.39000 1374.427
31.56000 794.922
31.73000 426.273
31.90000 363.891
32.07000 351.759
32.24000 326.482
32.41000 321.128
32.58000 311.730
32.75000 313.472
32.92000 329.510
33.09000 311.544
33.26000 314.603
33.43000 303.936
33.60000 303.763
33.77000 294.580
33.94000 311.730
34.11000 317.901
34.28000 339.304
34.45000 339.119
34.62000 316.167
34.79000 295.317
34.96000 270.519
35.13000 264.076
35.30000 278.327
35.47000 260.130
35.64000 265.753
35.81000 266.972
35.98000 254.001
36.15000 255.180
36.32000 260.522
36.49000 252.017
36.66000 256.072
36.83000 274.947
37.00000 294.457
37.17000 282.051
37.34000 273.335
37.51000 256.522
37.68000 253.201
37.85000 255.771
38.02000 265.929
38.19000 273.868
38.36000 380.216
38.53000 787.546
38.70000 1221.297
38.87000 828.192
39.04000 358.180
39.21000 245.186
39.38000 239.467
39.55000 222.516
39.72000 229.206
39.89000 226.020
40.06000 228.184
40.23000 218.425
40.40000 226.237
40.57000 223.015
40.74000 230.935
40.91000 199.168
41.08000 222.196
41.25000 210.871
41.42000 216.477
41.59000 202.807
41.76000 196.752
41.93000 220.684
42.10000 201.863
42.27000 197.052
42.44000 204.043
42.61000 204.600
42.78000 204.849
42.95000 211.651
43.12000 210.684
43.29000 187.341
43.46000 187.971
43.63000 203.425
43.80000 202.331
43.97000 202.339
44.14000 193.516
44.31000 194.394
44.48000 203.063
44.65000 218.635
44.82000 242.732
44.99000 261.430
45.16000 259.805
45.33000 234.189
45.50000 211.371
45.67000 203.619
45.84000 202.660
46.01000 189.989
46.18000 183.191
46.35000 175.653
46.52000 174.458
46.69000 168.010
46.86000 173.945
47.03000 175.869
47.20000 158.465
47.37000 160.839
47.54000 158.426
47.71000 169.821
47.88000 166.515
48.05000 154.890
48.22000 147.634
48.39000 163.623
48.56000 164.390
48.73000 159.812
48.90000 151.663
49.07000 157.313
49.24000 150.502
49.41000 149.044
49.58000 157.180
49.75000 157.683
49.92000 144.952
50.09000 151.512
50.26000 153.224
50.43000 171.947
50.60000 188.502
50.77000 170.255
50.94000 161.314
51.11000 151.341
51.28000 151.456
51.45000 144.401
51.62000 146.783
51.79000 142.541
51.96000 142.864
52.13000 133.196
52.30000 140.810
52.47000 140.808
52.64000 144.818
52.81000 155.073
52.98000 137.174
53.15000 149.491
53.32000 157.844
53.49000 152.478
53.66000 149.641
53.83000 142.383
54.00000 146.266
54.17000 136.102
54.34000 157.035
54.51000 144.495
54.68000 149.536
54.85000 144.402
55.02000 146.073
55.19000 154.348
55.36000 175.214
55.53000 285.461
55.70000 505.738
55.87000 705.205
56.04000 604.968
56.21000 346.583
56.38000 196.056
56.55000 151.598
56.72000 141.103
56.89000 136.068
57.06000 131.585
57.23000 119.886
57.40000 128.331
57.57000 131.081
57.74000 130.469
57.91000 122.843
58.08000 125.848
58.25000 118.795
58.42000 118.041
58.59000 124.919
58.76000 122.609
58.93000 133.548
59.10000 122.180
59.27000 113.054
59.44000 114.672
59.61000 117.223
59.78000 120.036
59.95000 110.742
60.12000 108.077
60.29000 112.619
60.46000 115.402
60.63000 114.092
60.80000 121.441
60.97000 126.605
61.14000 125.050
61.31000 125.935
61.48000 124.975
61.65000 284.640
61.82000 206.135
61.99000 126.147
62.16000 128.627
62.33000 127.473
62.50000 123.297
62.67000 123.440
62.84000 134.419
63.01000 131.971
63.18000 137.676
63.35000 135.032
63.52000 142.761
63.69000 130.553
63.86000 141.171
64.03000 147.265
64.20000 150.735
64.37000 154.147
64.54000 155.864
64.71000 158.234
64.88000 175.511
65.05000 200.084
65.22000 221.035
65.39000 262.279
65.56000 344.620
65.73000 958.372
65.90000 2051.846
66.07000 550.954
66.24000 388.889
66.41000 624.156
66.58000 415.320
66.75000 359.474
66.92000 351.447
67.09000 371.813
67.26000 401.476
67.43000 395.374
67.60000 436.485
67.77000 452.597
67.94000 481.663
68.11000 525.681
68.28000 581.944
68.45000 632.291
68.62000 887.009
68.79000 1595.094
68.96000 8003.236
69.13000 46005.531
69.30000 26253.514
69.47000 7241.030
69.64000 949.008
69.81000 642.637
69.98000 512.239
70.00000 500.799

File: BTO_Mapping_Theta2Theta_08-10-2025_001_41_-32-361_-23-511.xy
20.00000 464.588
20.17000 469.530
20.34000 460.844
20.51000 461.126
20.68000 478.497
20.85000 467.104
21.02000 488.867
21.19000 475.932
21.36000 461.890
21.53000 483.363
21.70000 546.939
21.87000 754.255
22.04000 829.232
22.21000 594.760
22.38000 494.414
22.55000 457.344
22.72000 446.902
22.89000 446.918
23.06000 437.367
23.23000 425.039
23.40000 407.761
23.57000 419.146
23.74000 430.631
23.91000 419.235
24.08000 417.439
24.25000 412.013
24.42000 403.224
24.59000 396.821
24.76000 414.294
24.93000 408.773
25.10000 392.258
25.27000 387.920
25.44000 393.497
25.61000 391.843
25.78000 382.027
25.95000 368.426
26.12000 405.326
26.29000 374.148
26.46000 388.736
26.63000 381.386
26.80000 372.545
26.97000 384.527
27.14000 366.724
27.31000 383.952
27.48000 390.745
27.65000 364.625
27.82000 371.572
27.99000 376.137
28.16000 378.700
28.33000 355.833
28.50000 372.346
28.67000 348.997
28.84000 378.905
29.01000 342.285
29.18000 360.096
29.35000 357.427
29.52000 366.114
29.69000 385.516
29.86000 475.880
30.03000 491.942
30.20000 438.701
30.37000 389.564
30.54000 405.105
30.71000 433.109
30.88000 525.327
31.05000 1191.654
31.22000 3191.613
31.39000 3431.642
31.56000 1483.802
31.73000 594.095
31.90000 371.982
32.07000 333.549
32.24000 344.107
32.41000 337.827
32.58000 333.934
32.75000 304.592
32.92000 334.678
33.09000 315.986
33.26000 298.798
33.43000 305.643
33.60000 286.693
33.77000 296.778
33.94000 292.278
34.11000 290.132
34.28000 283.920
34.45000 282.885
34.62000 280.250
34.79000 267.816
34.96000 274.203
35.13000 265.796
35.30000 258.244
35.47000 278.590
35.64000 269.797
35.81000 271.775
35.98000 255.667
36.15000 254.118
36.32000 263.757
36.49000 264.672
36.66000 265.865
36.83000 253.307
37.00000 262.449
37.17000 255.968
37.34000 235.901
37.51000 256.196
37.68000 249.928
37.85000 249.299
38.02000 249.592
38.19000 267.419
38.36000 314.645
38.53000 443.623
38.70000 458.283
38.87000 333.015
39.04000 267.309
39.21000 221.048
39.38000 243.781
39.55000 245.624
39.72000 222.313
39.89000 217.458
40.06000 219.400
40.23000 229.286
40.40000 231.203
40.57000 225.336
40.74000 203.290
40.91000 213.561
41.08000 225.260
41.25000 208.239
41.42000 213.266
41.59000 202.429
41.76000 220.421
41.93000 201.510
42.10000 189.509
42.27000 211.912
42.44000 203.370
42.61000 201.013
42.78000 220.932
42.95000 216.204
43.12000 201.706
43.29000 204.537
43.46000 210.765
43.63000 194.511
43.80000 197.082
43.97000 208.265
44.14000 206.310
44.31000 212.423
44.48000 268.180
44.65000 376.762
44.82000 491.569
44.99000 474.343
45.16000 364.256
45.33000 264.461
45.50000 251.362
45.67000 215.196
45.84000 197.932
46.01000 191.909
46.18000 180.341
46.35000 184.075
46.52000 170.802
46.69000 169.905
46.86000 186.339
47.03000 173.071
47.20000 167.371
47.37000 167.149
47.54000 167.819
47.71000 167.682
47.88000 159.973
48.05000 169.600
48.22000 160.189
48.39000 160.613
48.56000 161.031
48.73000 155.841
48.90000 156.011
49.07000 158.997
49.24000 159.809
49.41000 149.515
49.58000 162.100
49.75000 166.885
49.92000 154.009
50.09000 171.025
50.26000 196.208
50.43000 255.437
50.60000 274.565
50.77000 224.224
50.94000 178.863
51.11000 157.175
51.28000 159.673
51.45000 148.059
51.62000 150.344
51.79000 140.531
51.96000 138.902
52.13000 145.789
52.30000 136.393
52.47000 145.537
52.64000 137.661
52.81000 150.213
52.98000 155.493
53.15000 151.119
53.32000 152.715
53.49000 153.313
53.66000 139.439
53.83000 136.620
54.00000 138.037
54.17000 152.038
54.34000 140.883
54.51000 145.722
54.68000 148.429
54.85000 145.556
55.02000 148.464
55.19000 169.503
55.36000 244.663
55.53000 436.123
55.70000 607.910
55.87000 584.938
56.04000 435.519
56.21000 267.365
56.38000 183.923
56.55000 157.445
56.72000 138.459
56.89000 141.013
57.06000 123.254
57.23000 131.769
57.40000 128.441
57.57000 121.799
57.74000 122.414
57.91000 128.440
58.08000 137.344
58.25000 130.942
58.42000 126.626
58.59000 137.301
58.76000 112.018
58.93000 114.402
59.10000 116.348
59.27000 109.839
59.44000 118.734
59.61000 115.676
59.78000 113.662
59.95000 114.478
60.12000 113.878
60.29000 113.255
60.46000 124.554
60.63000 119.365
60.80000 116.132
60.97000 107.489
61.14000 119.124
61.31000 127.692
61.48000 129.232
61.65000 358.202
61.82000 291.261
61.99000 144.703
62.16000 135.589
62.33000 141.318
62.50000 126.771
62.67000 137.068
62.84000 139.866
63.01000 133.145
63.18000 134.333
63.35000 129.305
63.52000 138.227
63.69000 152.439
63.86000 145.997
64.03000 152.497
64.20000 149.997
64.37000 170.886
64.54000 176.541
64.71000 200.224
64.88000 220.279
65.05000 287.034
65.22000 373.668
65.39000 434.129
65.56000 484.223
65.73000 1190.493
65.90000 2884.867
66.07000 844.385
66.24000 476.881
66.41000 847.873
66.58000 560.568
66.75000 413.234
66.92000 415.784
67.09000 439.723
67.26000 450.312
67.43000 493.046
67.60000 491.354
67.77000 533.029
67.94000 574.871
68.11000 603.492
68.28000 633.466
68.45000 746.479
68.62000 1046.721
68.79000 2033.797
68.96000 9751.467
69.13000 64386.527
69.30000 41851.230
69.47000 13705.630
69.64000 1244.431
69.81000 749.621
69.98000 553.557
70.00000 531.279

File: BTO_Mapping_Theta2Theta_08-10-2025_001_45_-20-000_-34-641.xy
20.00000 479.095
20.17000 490.467
20.34000 477.069
20.51000 472.653
20.68000 467.648
20.85000 460.771
21.02000 456.472
21.19000 472.276
21.36000 470.718
21.53000 462.294
21.70000 501.081
21.87000 633.350
22.04000 702.947
22.21000 564.784
22.38000 496.419
22.55000 460.715
22.72000 459.347
22.89000 430.949
23.06000 441.421
23.23000 437.542
23.40000 441.314
23.57000 440.821
23.74000 445.434
23.91000 453.596
24.08000 452.718
24.25000 422.690
24.42000 417.920
24.59000 412.814
24.76000 425.668
24.93000 408.476
25.10000 398.322
25.27000 417.525
25.44000 403.156
25.61000 374.779
25.78000 385.320
25.95000 399.873
26.12000 387.111
26.29000 389.624
26.46000 383.408
26.63000 378.843
26.80000 389.685
26.97000 386.605
27.14000 363.821
27.31000 384.839
27.48000 363.375
27.65000 366.576
27.82000 375.693
27.99000 377.350
28.16000 380.211
28.33000 369.255
28.50000 360.880
28.67000 368.998
28.84000 369.240
29.01000 353.913
29.18000 349.235
29.35000 362.281
29.52000 365.324
29.69000 380.094
29.86000 415.374
30.03000 445.059
30.20000 395.191
30.37000 400.620
30.54000 392.936
30.71000 392.696
30.88000 481.790
31.05000 916.259
31.22000 2150.315
31.39000 2580.704
31.56000 1190.296
31.73000 496.435
31.90000 363.695
32.07000 351.682
32.24000 336.989
32.41000 339.867
32.58000 326.761
32.75000 307.414
32.92000 343.543
33.09000 308.611
33.26000 299.513
33.43000 291.747
33.60000 296.506
33.77000 285.598
33.94000 297.679
34.11000 295.207
34.28000 316.335
34.45000 313.658
34.62000 315.853
34.79000 290.066
34.96000 274.143
35.13000 266.004
35.30000 268.625
35.47000 256.624
35.64000 263.498
35.81000 246.883
35.98000 256.255
36.15000 247.210
36.32000 275.956
36.49000 259.233
36.66000 255.090
36.83000 254.242
37.00000 257.613
37.17000 254.991
37.34000 259.195
37.51000 244.224
37.68000 250.693
37.85000 262.255
38.02000 260.515
38.19000 268.731
38.36000 360.022
38.53000 563.500
38.70000 691.643
38.87000 455.944
39.04000 284.723
39.21000 245.950
39.38000 223.990
39.55000 229.658
39.72000 224.432
39.89000 234.286
40.06000 221.182
40.23000 227.103
40.40000 217.634
40.57000 224.314
40.74000 209.780
40.91000 206.247
41.08000 217.631
41.25000 204.039
41.42000 201.605
41.59000 206.650
41.76000 210.391
41.93000 208.953
42.10000 204.032
42.27000 210.457
42.44000 204.265
42.61000 189.291
42.78000 201.172
42.95000 200.478
43.12000 204.879
43.29000 201.676
43.46000 199.986
43.63000 186.798
43.80000 198.884
43.97000 199.562
44.14000 198.418
44.31000 214.390
44.48000 239.122
44.65000 277.139
44.82000 392.884
44.99000 396.462
45.16000 329.861
45.33000 264.790
45.50000 213.836
45.67000 208.541
45.84000 189.648
46.01000 185.711
46.18000 183.017
46.35000 171.251
46.52000 173.427
46.69000 165.972
46.86000 165.328
47.03000 176.576
47.20000 165.376
47.37000 176.257
47.54000 150.436
47.71000 158.549
47.88000 164.628
48.05000 163.034
48.22000 168.067
48.39000 162.323
48.56000 163.806
48.73000 160.604
48.90000 157.839
49.07000 150.563
49.24000 155.092
49.41000 158.862
49.58000 151.354
49.75000 153.301
49.92000 163.162
50.09000 167.765
50.26000 191.376
50.43000 227.124
50.60000 245.564
50.77000 216.284
50.94000 180.934
51.11000 163.588
51.28000 161.016
51.45000 155.647
51.62000 143.636
51.79000 137.315
51.96000 154.033
52.13000 140.729
52.30000 138.933
52.47000 142.128
52.64000 136.857
52.81000 139.133
52.98000 146.737
53.15000 150.148
53.32000 160.494
53.49000 153.051
53.66000 150.521
53.83000 151.010
54.00000 149.419
54.17000 142.463
54.34000 138.559
54.51000 144.876
54.68000 140.167
54.85000 146.974
55.02000 162.411
55.19000 168.338
55.36000 245.255
55.53000 396.584
55.70000 590.239
55.87000 665.557
56.04000 486.999
56.21000 290.054
56.38000 189.284
56.55000 154.109
56.72000 141.278
56.89000 133.386
57.06000 115.567
57.23000 133.079
57.40000 129.595
57.57000 121.505
57.74000 123.988
57.91000 123.882
58.08000 133.249
58.25000 124.003
58.42000 127.008
58.59000 120.727
58.76000 120.661
58.93000 114.183
59.10000 126.711
59.27000 112.461
59.44000 122.723
59.61000 123.285
59.78000 121.864
59.95000 124.357
60.12000 127.260
60.29000 123.404
60.46000 110.840
60.63000 123.282
60.80000 121.521
60.97000 117.579
61.14000 125.865
61.31000 115.255
61.48000 125.389
61.65000 327.228
61.82000 236.944
61.99000 141.175
62.16000 127.006
62.33000 135.664
62.50000 125.022
62.67000 134.571
62.84000 131.665
63.01000 133.558
63.18000 130.515
63.35000 125.954
63.52000 146.048
63.69000 136.913
63.86000 146.876
64.03000 145.147
64.20000 151.015
64.37000 164.380
64.54000 168.348
64.71000 167.183
64.88000 202.857
65.05000 244.011
65.22000 287.294
65.39000 356.671
65.56000 414.294
65.73000 1093.754
65.90000 2366.782
66.07000 624.836
66.24000 419.425
66.41000 711.703
66.58000 487.551
66.75000 371.338
66.92000 376.804
67.09000 388.714
67.26000 407.677
67.43000 430.261
67.60000 464.743
67.77000 475.331
67.94000 514.286
68.11000 551.727
68.28000 592.109
68.45000 705.144
68.62000 900.044
68.79000 1787.357
68.96000 8952.081
69.13000 53416.375
69.30000 31556.664
69.47000 9265.757
69.64000 1055.889
69.81000 676.796
69.98000 534.185
70.00000 538.132

File: BTO_Mapping_Theta2Theta_08-10-2025_001_49_-4-181_-39-781.xy
20.00000 485.696
20.17000 483.501
20.34000 476.893
20.51000 471.051
20.68000 480.491
20.85000 463.102
21.02000 464.413
21.19000 475.716
21.36000 469.986
21.53000 467.598
21.70000 466.508
21.87000 523.665
22.04000 586.419
22.21000 527.317
22.38000 487.903
22.55000 456.814
22.72000 438.517
22.89000 448.848
23.06000 444.167
23.23000 436.486
23.40000 414.766
23.57000 436.102
23.74000 450.886
23.91000 471.712
24.08000 477.581
24.25000 442.390
24.42000 424.909
24.59000 410.212
24.76000 414.911
24.93000 414.735
25.10000 389.104
25.27000 400.536
25.44000 396.104
25.61000 402.740
25.78000 412.120
25.95000 395.005
26.12000 390.965
26.29000 380.221
26.46000 389.529
26.63000 383.687
26.80000 387.748
26.97000 379.289
27.14000 384.458
27.31000 371.187
27.48000 376.023
27.65000 376.032
27.82000 382.311
27.99000 351.318
28.16000 356.100
28.33000 359.212
28.50000 359.614
28.67000 352.567
28.84000 361.356
29.01000 365.716
29.18000 353.495
29.35000 347.322
29.52000 359.259
29.69000 358.211
29.86000 399.308
30.03000 374.246
30.20000 368.875
30.37000 346.523
30.54000 379.807
30.71000 357.528
30.88000 403.455
31.05000 536.004
31.22000 1048.103
31.39000 1336.520
31.56000 755.359
31.73000 414.123
31.90000 345.047
32.07000 319.385
32.24000 329.152
32.41000 323.076
32.58000 316.213
32.75000 313.794
32.92000 318.882
33.09000 299.674
33.26000 287.588
33.43000 306.426
33.60000 304.150
33.77000 290.704
33.94000 315.716
34.11000 321.442
34.28000 347.650
34.45000 346.831
34.62000 307.661
34.79000 298.409
34.96000 290.739
35.13000 282.102
35.30000 267.578
35.47000 260.770
35.64000 263.418
35.81000 261.100
35.98000 257.420
36.15000 262.324
36.32000 257.819
36.49000 265.343
36.66000 275.898
36.83000 276.553
37.00000 295.638
37.17000 276.097
37.34000 269.342
37.51000 256.311
37.68000 258.801
37.85000 253.236
38.02000 251.314
38.19000 268.042
38.36000 413.452
38.53000 858.600
38.70000 1261.897
38.87000 845.439
39.04000 365.728
39.21000 250.922
39.38000 240.509
39.55000 238.241
39.72000 223.354
39.89000 236.691
40.06000 230.377
40.23000 216.446
40.40000 222.349
40.57000 210.441
40.74000 214.475
40.91000 214.060
41.08000 200.180
41.25000 207.374
41.42000 193.162
41.59000 210.027
41.76000 204.816
41.93000 224.537
42.10000 216.534
42.27000 198.882
42.44000 209.409
42.61000 201.159
42.78000 213.345
42.95000 215.165
43.12000 204.838
43.29000 195.324
43.46000 197.096
43.63000 184.336
43.80000 196.154
43.97000 187.975
44.14000 198.038
44.31000 202.303
44.48000 214.977
44.65000 231.890
44.82000 241.302
44.99000 274.940
45.16000 262.684
45.33000 213.746
45.50000 198.876
45.67000 196.970
45.84000 194.662
46.01000 181.763
46.18000 171.961
46.35000 174.185
46.52000 172.388
46.69000 166.990
46.86000 171.482
47.03000 177.742
47.20000 172.584
47.37000 169.040
47.54000 166.794
47.71000 170.423
47.88000 175.550
48.05000 167.634
48.22000 160.542
48.39000 158.720
48.56000 164.082
48.73000 155.831
48.90000 159.988
49.07000 155.721
49.24000 151.208
49.41000 157.260
49.58000 149.973
49.75000 156.430
49.92000 151.549
50.09000 156.892
50.26000 159.531
50.43000 170.544
50.60000 191.662
50.77000 179.978
50.94000 163.978
51.11000 162.177
51.28000 153.316
51.45000 146.658
51.62000 146.749
51.79000 142.677
51.96000 132.700
52.13000 137.246
52.30000 137.488
52.47000 140.528
52.64000 141.831
52.81000 136.800
52.98000 143.883
53.15000 157.368
53.32000 166.691
53.49000 159.866
53.66000 147.683
53.83000 137.768
54.00000 144.834
54.17000 151.944
54.34000 131.388
54.51000 142.106
54.68000 135.082
54.85000 139.739
55.02000 143.263
55.19000 152.186
55.36000 186.829
55.53000 322.101
55.70000 578.837
55.87000 808.744
56.04000 642.596
56.21000 336.817
56.38000 203.386
56.55000 151.664
56.72000 138.354
56.89000 135.771
57.06000 140.533
57.23000 131.037
57.40000 130.302
57.57000 130.124
57.74000 126.390
57.91000 121.198
58.08000 122.441
58.25000 127.308
58.42000 119.243
58.59000 119.622
58.76000 128.543
58.93000 120.943
59.10000 128.287
59.27000 118.725
59.44000 114.567
59.61000 116.826
59.78000 117.398
59.95000 120.450
60.12000 113.993
60.29000 114.389
60.46000 119.706
60.63000 119.650
60.80000 119.910
60.97000 121.016
61.14000 118.629
61.31000 121.842
61.48000 132.224
61.65000 296.865
61.82000 187.098
61.99000 129.127
62.16000 132.999
62.33000 132.542
62.50000 125.223
62.67000 128.912
62.84000 129.863
63.01000 128.840
63.18000 127.025
63.35000 140.501
63.52000 143.959
63.69000 137.344
63.86000 146.002
64.03000 144.097
64.20000 140.456
64.37000 150.263
64.54000 160.988
64.71000 173.912
64.88000 171.144
65.05000 198.077
65.22000 231.259
65.39000 275.440
65.56000 327.205
65.73000 1009.904
65.90000 1976.341
66.07000 513.961
66.24000 381.094
66.41000 637.813
66.58000 406.669
66.75000 359.036
66.92000 356.579
67.09000 364.650
67.26000 386.941
67.43000 415.914
67.60000 401.216
67.77000 445.381
67.94000 481.040
68.11000 506.886
68.28000 575.814
68.45000 644.300
68.62000 891.796
68.79000 1612.016
68.96000 9031.621
69.13000 45283.445
69.30000 24688.217
69.47000 6348.064
69.64000 919.652
69.81000 624.706
69.98000 500.152
70.00000 483.147