Folder: Master-Thesis/XRD/24-09-2025 Dep 3/XY Data (part 3)

File: BTO_Mapping_Theta2Theta_24-09-2025_001_22_-5-000_8-660.xy
20.00000 543.762
20.17000 574.358
20.34000 542.620
20.51000 543.143
20.68000 558.232
20.85000 555.319
21.02000 541.142
21.19000 554.067
21.36000 546.477
21.53000 544.976
21.70000 578.746
21.87000 620.782
22.04000 719.073
22.21000 670.167
22.38000 596.205
22.55000 552.113
22.72000 492.955
22.89000 507.345
23.06000 502.917
23.23000 510.340
23.40000 517.320
23.57000 477.734
23.74000 496.109
23.91000 497.648
24.08000 478.765
24.25000 485.714
24.42000 477.620
24.59000 486.083
24.76000 485.294
24.93000 499.631
25.10000 446.414
25.27000 465.203
25.44000 489.146
25.61000 472.669
25.78000 464.897
25.95000 466.873
26.12000 451.882
26.29000 465.984
26.46000 449.760
26.63000 455.031
26.80000 434.000
26.97000 439.602
27.14000 445.237
27.31000 433.639
27.48000 443.623
27.65000 437.892
27.82000 437.228
27.99000 418.717
28.16000 457.785
28.33000 432.615
28.50000 427.727
28.67000 423.954
28.84000 404.713
29.01000 418.861
29.18000 419.673
29.35000 415.053
29.52000 411.852
29.69000 406.054
29.86000 432.871
30.03000 458.609
30.20000 442.457
30.37000 429.827
30.54000 425.678
30.71000 432.091
30.88000 490.049
31.05000 698.930
31.22000 1907.799
31.39000 3510.225
31.56000 2054.446
31.73000 737.684
31.90000 479.325
32.07000 435.650
32.24000 416.771
32.41000 391.486
32.58000 378.456
32.75000 378.270
32.92000 506.982
33.09000 412.640
33.26000 358.567
33.43000 368.472
33.60000 328.046
33.77000 337.088
33.94000 336.269
34.11000 342.406
34.28000 336.423
34.45000 336.389
34.62000 337.231
34.79000 316.523
34.96000 312.154
35.13000 310.797
35.30000 306.088
35.47000 321.170
35.64000 308.121
35.81000 311.313
35.98000 295.300
36.15000 304.456
36.32000 286.011
36.49000 294.763
36.66000 293.848
36.83000 300.478
37.00000 310.375
37.17000 309.523
37.34000 297.949
37.51000 310.730
37.68000 304.763
37.85000 308.841
38.02000 304.323
38.19000 325.488
38.36000 382.737
38.53000 772.911
38.70000 1474.158
38.87000 968.285
39.04000 397.487
39.21000 299.167
39.38000 282.948
39.55000 270.255
39.72000 267.877
39.89000 262.643
40.06000 248.692
40.23000 265.692
40.40000 251.658
40.57000 257.333
40.74000 250.911
40.91000 246.548
41.08000 247.121
41.25000 231.567
41.42000 259.439
41.59000 235.179
41.76000 239.715
41.93000 256.832
42.10000 245.740
42.27000 230.182
42.44000 229.252
42.61000 237.215
42.78000 228.349
42.95000 235.854
43.12000 230.439
43.29000 232.633
43.46000 233.580
43.63000 218.613
43.80000 228.785
43.97000 215.357
44.14000 215.772
44.31000 225.376
44.48000 213.071
44.65000 219.442
44.82000 278.268
44.99000 358.572
45.16000 347.512
45.33000 300.374
45.50000 258.513
45.67000 246.509
45.84000 230.835
46.01000 216.458
46.18000 211.748
46.35000 209.906
46.52000 196.025
46.69000 195.468
46.86000 201.035
47.03000 193.408
47.20000 193.213
47.37000 189.183
47.54000 186.564
47.71000 187.115
47.88000 201.273
48.05000 191.479
48.22000 180.824
48.39000 189.562
48.56000 192.406
48.73000 182.878
48.90000 184.459
49.07000 166.788
49.24000 176.414
49.41000 168.504
49.58000 175.749
49.75000 184.239
49.92000 185.032
50.09000 173.480
50.26000 190.757
50.43000 206.576
50.60000 259.110
50.77000 260.438
50.94000 227.246
51.11000 196.766
51.28000 181.530
51.45000 172.335
51.62000 180.926
51.79000 168.510
51.96000 165.064
52.13000 156.017
52.30000 165.291
52.47000 163.966
52.64000 162.258
52.81000 163.382
52.98000 154.281
53.15000 160.332
53.32000 166.392
53.49000 169.282
53.66000 157.921
53.83000 164.186
54.00000 162.145
54.17000 151.664
54.34000 155.561
54.51000 146.476
54.68000 158.957
54.85000 157.769
55.02000 164.571
55.19000 172.007
55.36000 180.079
55.53000 219.282
55.70000 405.790
55.87000 753.404
56.04000 760.398
56.21000 403.314
56.38000 239.482
56.55000 193.332
56.72000 161.752
56.89000 152.088
57.06000 154.073
57.23000 148.698
57.40000 146.100
57.57000 148.768
57.74000 143.833
57.91000 153.542
58.08000 133.293
58.25000 138.782
58.42000 134.389
58.59000 127.911
58.76000 130.129
58.93000 129.703
59.10000 132.106
59.27000 126.347
59.44000 135.207
59.61000 128.385
59.78000 131.441
59.95000 128.751
60.12000 136.385
60.29000 129.006
60.46000 131.055
60.63000 125.729
60.80000 127.355
60.97000 141.405
61.14000 136.240
61.31000 139.496
61.48000 141.155
61.65000 279.661
61.82000 213.554
61.99000 143.415
62.16000 143.899
62.33000 150.559
62.50000 130.385
62.67000 147.216
62.84000 137.491
63.01000 149.953
63.18000 149.451
63.35000 139.964
63.52000 138.487
63.69000 151.875
63.86000 146.659
64.03000 150.410
64.20000 152.049
64.37000 166.466
64.54000 159.944
64.71000 170.226
64.88000 182.575
65.05000 200.121
65.22000 246.787
65.39000 327.947
65.56000 413.460
65.73000 768.543
65.90000 1221.245
66.07000 413.681
66.24000 345.090
66.41000 455.762
66.58000 333.774
66.75000 311.805
66.92000 333.002
67.09000 361.569
67.26000 372.673
67.43000 397.551
67.60000 430.792
67.77000 443.407
67.94000 486.690
68.11000 553.017
68.28000 618.173
68.45000 694.031
68.62000 1030.064
68.79000 1973.356
68.96000 13527.475
69.13000 59377.410
69.30000 34669.137
69.47000 8029.658
69.64000 1219.701
69.81000 823.333
69.98000 664.410
70.00000 648.370

File: BTO_Mapping_Theta2Theta_24-09-2025_001_23_-10-000_17-321.xy
20.00000 585.812
20.17000 580.937
20.34000 558.228
20.51000 568.561
20.68000 554.735
20.85000 551.822
21.02000 557.890
21.19000 539.364
21.36000 535.717
21.53000 527.161
21.70000 558.868
21.87000 649.611
22.04000 802.774
22.21000 685.244
22.38000 597.794
22.55000 537.472
22.72000 529.247
22.89000 507.245
23.06000 526.104
23.23000 532.416
23.40000 512.150
23.57000 489.074
23.74000 495.877
23.91000 497.988
24.08000 495.029
24.25000 502.864
24.42000 482.492
24.59000 473.062
24.76000 468.816
24.93000 452.685
25.10000 467.835
25.27000 449.106
25.44000 466.168
25.61000 451.141
25.78000 462.633
25.95000 460.402
26.12000 461.009
26.29000 462.402
26.46000 461.582
26.63000 447.554
26.80000 445.158
26.97000 426.987
27.14000 457.349
27.31000 434.244
27.48000 426.756
27.65000 447.059
27.82000 428.279
27.99000 452.255
28.16000 422.490
28.33000 445.114
28.50000 425.656
28.67000 428.179
28.84000 422.451
29.01000 435.454
29.18000 411.194
29.35000 398.658
29.52000 417.417
29.69000 413.106
29.86000 431.706
30.03000 448.251
30.20000 447.095
30.37000 419.598
30.54000 430.911
30.71000 441.003
30.88000 496.569
31.05000 702.161
31.22000 1941.383
31.39000 3682.178
31.56000 2098.910
31.73000 752.970
31.90000 497.568
32.07000 454.787
32.24000 400.930
32.41000 395.261
32.58000 384.418
32.75000 385.939
32.92000 514.321
33.09000 456.045
33.26000 350.204
33.43000 352.079
33.60000 359.650
33.77000 353.698
33.94000 338.268
34.11000 325.589
34.28000 330.357
34.45000 324.352
34.62000 328.252
34.79000 335.937
34.96000 314.107
35.13000 317.432
35.30000 319.369
35.47000 307.044
35.64000 312.283
35.81000 306.170
35.98000 305.889
36.15000 308.258
36.32000 317.836
36.49000 302.771
36.66000 306.331
36.83000 301.851
37.00000 312.081
37.17000 306.262
37.34000 290.026
37.51000 285.214
37.68000 301.901
37.85000 306.975
38.02000 292.805
38.19000 320.091
38.36000 388.485
38.53000 782.870
38.70000 1400.980
38.87000 911.375
39.04000 369.052
39.21000 313.556
39.38000 273.590
39.55000 273.063
39.72000 262.253
39.89000 261.594
40.06000 271.469
40.23000 240.818
40.40000 249.879
40.57000 246.549
40.74000 256.247
40.91000 244.903
41.08000 249.138
41.25000 260.027
41.42000 243.311
41.59000 230.774
41.76000 239.965
41.93000 245.298
42.10000 229.194
42.27000 237.408
42.44000 239.785
42.61000 230.138
42.78000 215.023
42.95000 222.301
43.12000 226.816
43.29000 220.883
43.46000 234.531
43.63000 218.310
43.80000 217.170
43.97000 209.464
44.14000 234.202
44.31000 216.260
44.48000 214.017
44.65000 242.781
44.82000 279.225
44.99000 375.460
45.16000 390.737
45.33000 325.611
45.50000 281.008
45.67000 250.811
45.84000 239.321
46.01000 222.057
46.18000 196.727
46.35000 225.058
46.52000 205.066
46.69000 204.169
46.86000 196.522
47.03000 192.131
47.20000 191.274
47.37000 194.530
47.54000 181.377
47.71000 187.636
47.88000 188.927
48.05000 179.538
48.22000 187.988
48.39000 189.749
48.56000 183.835
48.73000 181.757
48.90000 180.143
49.07000 182.203
49.24000 173.692
49.41000 198.605
49.58000 169.398
49.75000 173.348
49.92000 166.605
50.09000 172.302
50.26000 177.720
50.43000 199.204
50.60000 268.743
50.77000 270.377
50.94000 207.290
51.11000 188.612
51.28000 179.529
51.45000 163.651
51.62000 153.772
51.79000 159.445
51.96000 155.120
52.13000 162.223
52.30000 154.433
52.47000 154.958
52.64000 162.352
52.81000 161.637
52.98000 148.836
53.15000 151.483
53.32000 168.612
53.49000 159.834
53.66000 157.994
53.83000 156.898
54.00000 163.881
54.17000 159.628
54.34000 150.301
54.51000 153.449
54.68000 162.794
54.85000 155.734
55.02000 156.217
55.19000 171.459
55.36000 180.933
55.53000 220.111
55.70000 386.001
55.87000 758.750
56.04000 718.264
56.21000 430.625
56.38000 228.341
56.55000 186.672
56.72000 162.527
56.89000 149.239
57.06000 154.192
57.23000 152.078
57.40000 142.467
57.57000 152.970
57.74000 143.103
57.91000 140.383
58.08000 135.065
58.25000 143.656
58.42000 139.327
58.59000 135.410
58.76000 138.858
58.93000 135.298
59.10000 141.957
59.27000 126.545
59.44000 142.046
59.61000 131.661
59.78000 133.430
59.95000 150.466
60.12000 134.864
60.29000 132.968
60.46000 132.031
60.63000 131.208
60.80000 126.713
60.97000 138.563
61.14000 130.053
61.31000 127.144
61.48000 155.170
61.65000 285.820
61.82000 211.412
61.99000 143.597
62.16000 137.890
62.33000 141.109
62.50000 141.139
62.67000 152.818
62.84000 134.489
63.01000 150.709
63.18000 151.209
63.35000 138.510
63.52000 151.822
63.69000 142.092
63.86000 144.707
64.03000 151.460
64.20000 148.394
64.37000 156.234
64.54000 164.848
64.71000 168.458
64.88000 182.153
65.05000 192.486
65.22000 251.103
65.39000 347.081
65.56000 424.551
65.73000 773.470
65.90000 1305.263
66.07000 425.978
66.24000 351.477
66.41000 493.696
66.58000 362.529
66.75000 331.445
66.92000 347.361
67.09000 368.219
67.26000 382.424
67.43000 429.794
67.60000 435.626
67.77000 496.063
67.94000 528.894
68.11000 565.942
68.28000 634.507
68.45000 734.307
68.62000 1058.054
68.79000 2087.139
68.96000 14085.203
69.13000 63564.449
69.30000 37643.789
69.47000 9035.708
69.64000 1269.439
69.81000 824.479
69.98000 684.386
70.00000 685.683

File: BTO_Mapping_Theta2Theta_24-09-2025_001_24_-15-000_25-981.xy
20.00000 574.315
20.17000 556.196
20.34000 543.491
20.51000 562.468
20.68000 548.532
20.85000 551.498
21.02000 558.460
21.19000 561.737
21.36000 554.297
21.53000 527.237
21.70000 577.902
21.87000 647.212
22.04000 812.185
22.21000 719.828
22.38000 607.868
22.55000 533.532
22.72000 523.888
22.89000 527.072
23.06000 527.777
23.23000 524.433
23.40000 482.497
23.57000 489.347
23.74000 512.438
23.91000 500.809
24.08000 486.253
24.25000 494.632
24.42000 492.262
24.59000 486.297
24.76000 466.210
24.93000 495.186
25.10000 486.113
25.27000 481.319
25.44000 480.471
25.61000 470.364
25.78000 467.732
25.95000 471.173
26.12000 454.832
26.29000 462.016
26.46000 446.506
26.63000 453.730
26.80000 461.065
26.97000 457.200
27.14000 435.902
27.31000 445.622
27.48000 444.249
27.65000 425.974
27.82000 421.164
27.99000 413.097
28.16000 445.326
28.33000 449.107
28.50000 411.917
28.67000 427.148
28.84000 408.358
29.01000 413.168
29.18000 423.088
29.35000 427.706
29.52000 433.299
29.69000 404.665
29.86000 446.937
30.03000 472.040
30.20000 443.839
30.37000 444.634
30.54000 446.044
30.71000 445.110
30.88000 490.787
31.05000 716.675
31.22000 1932.309
31.39000 3594.170
31.56000 2098.661
31.73000 752.792
31.90000 498.714
32.07000 439.820
32.24000 400.357
32.41000 386.448
32.58000 376.605
32.75000 371.652
32.92000 546.845
33.09000 446.290
33.26000 361.970
33.43000 338.300
33.60000 339.407
33.77000 333.893
33.94000 343.379
34.11000 324.239
34.28000 333.813
34.45000 333.939
34.62000 318.279
34.79000 336.833
34.96000 317.360
35.13000 316.714
35.30000 300.766
35.47000 314.880
35.64000 307.327
35.81000 309.304
35.98000 302.824
36.15000 292.707
36.32000 297.414
36.49000 289.206
36.66000 309.219
36.83000 309.438
37.00000 318.022
37.17000 308.459
37.34000 293.617
37.51000 294.716
37.68000 301.042
37.85000 286.724
38.02000 305.068
38.19000 311.102
38.36000 386.725
38.53000 743.104
38.70000 1309.747
38.87000 828.334
39.04000 362.749
39.21000 288.487
39.38000 275.892
39.55000 276.088
39.72000 274.033
39.89000 258.983
40.06000 265.706
40.23000 269.184
40.40000 250.726
40.57000 247.232
40.74000 248.496
40.91000 249.670
41.08000 259.706
41.25000 244.736
41.42000 243.928
41.59000 241.359
41.76000 238.853
41.93000 262.291
42.10000 236.824
42.27000 242.391
42.44000 240.715
42.61000 231.711
42.78000 232.970
42.95000 241.727
43.12000 223.780
43.29000 223.158
43.46000 218.115
43.63000 217.471
43.80000 222.479
43.97000 212.905
44.14000 228.985
44.31000 217.798
44.48000 237.578
44.65000 237.910
44.82000 305.801
44.99000 413.886
45.16000 412.685
45.33000 332.118
45.50000 278.943
45.67000 251.609
45.84000 239.753
46.01000 209.700
46.18000 203.445
46.35000 220.321
46.52000 195.257
46.69000 183.442
46.86000 198.750
47.03000 196.213
47.20000 197.295
47.37000 192.690
47.54000 188.824
47.71000 195.715
47.88000 187.087
48.05000 175.135
48.22000 190.246
48.39000 172.613
48.56000 181.046
48.73000 178.974
48.90000 176.578
49.07000 167.745
49.24000 176.975
49.41000 178.377
49.58000 184.617
49.75000 184.089
49.92000 187.636
50.09000 179.495
50.26000 178.646
50.43000 216.899
50.60000 260.271
50.77000 275.697
50.94000 216.625
51.11000 196.248
51.28000 167.080
51.45000 179.274
51.62000 174.380
51.79000 162.481
51.96000 159.660
52.13000 164.012
52.30000 156.061
52.47000 156.779
52.64000 155.951
52.81000 157.113
52.98000 167.193
53.15000 161.485
53.32000 169.578
53.49000 164.967
53.66000 166.122
53.83000 151.913
54.00000 170.565
54.17000 166.666
54.34000 155.162
54.51000 150.771
54.68000 148.964
54.85000 149.434
55.02000 164.097
55.19000 181.042
55.36000 178.342
55.53000 209.930
55.70000 389.147
55.87000 757.611
56.04000 743.013
56.21000 399.563
56.38000 229.536
56.55000 177.618
56.72000 168.932
56.89000 158.898
57.06000 145.700
57.23000 155.612
57.40000 143.414
57.57000 144.662
57.74000 151.154
57.91000 149.780
58.08000 140.540
58.25000 136.429
58.42000 137.254
58.59000 144.127
58.76000 140.823
58.93000 138.911
59.10000 133.048
59.27000 137.135
59.44000 126.199
59.61000 142.948
59.78000 150.310
59.95000 125.503
60.12000 127.792
60.29000 124.525
60.46000 129.553
60.63000 132.729
60.80000 123.103
60.97000 128.646
61.14000 128.983
61.31000 139.195
61.48000 168.328
61.65000 297.001
61.82000 201.471
61.99000 151.575
62.16000 148.063
62.33000 139.327
62.50000 144.546
62.67000 147.275
62.84000 151.576
63.01000 138.716
63.18000 142.721
63.35000 145.466
63.52000 147.679
63.69000 148.392
63.86000 156.354
64.03000 167.035
64.20000 162.655
64.37000 165.325
64.54000 177.105
64.71000 182.027
64.88000 186.259
65.05000 208.582
65.22000 241.205
65.39000 321.728
65.56000 431.186
65.73000 859.402
65.90000 1369.538
66.07000 439.384
66.24000 332.836
66.41000 501.437
66.58000 381.458
66.75000 329.035
66.92000 360.962
67.09000 377.867
67.26000 401.294
67.43000 413.813
67.60000 463.040
67.77000 502.305
67.94000 520.591
68.11000 587.798
68.28000 651.570
68.45000 755.827
68.62000 1120.747
68.79000 2199.360
68.96000 15958.384
69.13000 68041.844
69.30000 39809.254
69.47000 9434.244
69.64000 1340.795
69.81000 888.628
69.98000 702.236
70.00000 695.162

File: BTO_Mapping_Theta2Theta_24-09-2025_001_25_-20-000_34-641.xy
20.00000 553.747
20.17000 547.469
20.34000 575.920
20.51000 566.952
20.68000 560.192
20.85000 544.407
21.02000 561.406
21.19000 559.871
21.36000 545.319
21.53000 563.838
21.70000 572.422
21.87000 649.899
22.04000 805.129
22.21000 743.877
22.38000 615.761
22.55000 537.637
22.72000 520.323
22.89000 531.441
23.06000 514.129
23.23000 499.096
23.40000 516.636
23.57000 497.493
23.74000 491.037
23.91000 492.978
24.08000 493.842
24.25000 488.217
24.42000 468.096
24.59000 477.248
24.76000 480.088
24.93000 472.481
25.10000 456.685
25.27000 472.341
25.44000 469.641
25.61000 465.039
25.78000 457.102
25.95000 462.157
26.12000 459.549
26.29000 459.276
26.46000 434.855
26.63000 443.382
26.80000 443.897
26.97000 436.488
27.14000 446.681
27.31000 438.069
27.48000 430.536
27.65000 438.877
27.82000 451.397
27.99000 429.955
28.16000 467.553
28.33000 453.374
28.50000 417.011
28.67000 458.571
28.84000 422.608
29.01000 417.929
29.18000 418.997
29.35000 411.018
29.52000 421.017
29.69000 417.649
29.86000 430.023
30.03000 448.923
30.20000 454.549
30.37000 437.697
30.54000 436.106
30.71000 449.969
30.88000 471.124
31.05000 682.814
31.22000 1787.586
31.39000 3572.494
31.56000 2265.777
31.73000 812.584
31.90000 499.240
32.07000 430.976
32.24000 411.808
32.41000 400.519
32.58000 393.825
32.75000 390.502
32.92000 582.322
33.09000 452.152
33.26000 355.669
33.43000 346.518
33.60000 360.657
33.77000 344.799
33.94000 338.078
34.11000 345.083
34.28000 328.185
34.45000 323.085
34.62000 319.826
34.79000 326.496
34.96000 328.095
35.13000 320.930
35.30000 313.697
35.47000 316.396
35.64000 317.751
35.81000 311.254
35.98000 309.721
36.15000 301.143
36.32000 312.223
36.49000 289.655
36.66000 294.164
36.83000 286.956
37.00000 323.542
37.17000 307.895
37.34000 300.274
37.51000 296.168
37.68000 283.260
37.85000 283.443
38.02000 291.113
38.19000 300.809
38.36000 358.049
38.53000 647.040
38.70000 1203.940
38.87000 875.118
39.04000 379.655
39.21000 308.336
39.38000 280.401
39.55000 278.724
39.72000 280.053
39.89000 275.170
40.06000 260.304
40.23000 263.137
40.40000 263.346
40.57000 262.265
40.74000 246.236
40.91000 255.674
41.08000 254.931
41.25000 252.492
41.42000 254.112
41.59000 230.632
41.76000 249.959
41.93000 237.206
42.10000 237.332
42.27000 241.694
42.44000 225.893
42.61000 234.029
42.78000 229.498
42.95000 246.484
43.12000 236.832
43.29000 229.159
43.46000 216.279
43.63000 216.294
43.80000 224.166
43.97000 225.045
44.14000 219.258
44.31000 233.548
44.48000 225.652
44.65000 226.798
44.82000 311.884
44.99000 421.640
45.16000 434.931
45.33000 332.752
45.50000 280.201
45.67000 240.364
45.84000 231.669
46.01000 221.419
46.18000 203.186
46.35000 208.268
46.52000 209.891
46.69000 195.816
46.86000 198.578
47.03000 194.684
47.20000 193.994
47.37000 182.360
47.54000 195.702
47.71000 195.160
47.88000 194.267
48.05000 173.896
48.22000 188.142
48.39000 181.216
48.56000 189.055
48.73000 189.179
48.90000 176.493
49.07000 171.296
49.24000 179.462
49.41000 173.918
49.58000 179.893
49.75000 172.958
49.92000 179.516
50.09000 181.203
50.26000 181.187
50.43000 205.019
50.60000 243.717
50.77000 293.723
50.94000 250.387
51.11000 191.600
51.28000 184.116
51.45000 180.060
51.62000 162.053
51.79000 157.340
51.96000 161.278
52.13000 156.687
52.30000 166.590
52.47000 155.653
52.64000 159.802
52.81000 163.300
52.98000 162.539
53.15000 173.416
53.32000 168.985
53.49000 173.400
53.66000 166.593
53.83000 169.745
54.00000 155.546
54.17000 159.961
54.34000 155.358
54.51000 144.886
54.68000 149.042
54.85000 151.327
55.02000 158.725
55.19000 171.219
55.36000 173.970
55.53000 214.055
55.70000 367.875
55.87000 718.720
56.04000 768.399
56.21000 447.200
56.38000 245.918
56.55000 189.428
56.72000 169.071
56.89000 149.752
57.06000 163.390
57.23000 148.277
57.40000 144.852
57.57000 141.263
57.74000 143.570
57.91000 138.366
58.08000 145.210
58.25000 139.135
58.42000 135.585
58.59000 138.633
58.76000 138.107
58.93000 135.661
59.10000 127.164
59.27000 140.096
59.44000 140.008
59.61000 132.254
59.78000 128.209
59.95000 136.210
60.12000 137.293
60.29000 142.906
60.46000 137.079
60.63000 135.100
60.80000 130.447
60.97000 132.783
61.14000 129.481
61.31000 133.760
61.48000 155.850
61.65000 304.885
61.82000 227.964
61.99000 144.428
62.16000 152.146
62.33000 131.230
62.50000 143.276
62.67000 137.106
62.84000 151.471
63.01000 149.582
63.18000 149.669
63.35000 140.187
63.52000 133.551
63.69000 157.235
63.86000 148.154
64.03000 149.084
64.20000 157.721
64.37000 171.785
64.54000 180.237
64.71000 177.235
64.88000 182.894
65.05000 190.939
65.22000 250.109
65.39000 353.894
65.56000 440.595
65.73000 821.761
65.90000 1439.044
66.07000 475.986
66.24000 361.362
66.41000 543.061
66.58000 389.797
66.75000 353.612
66.92000 343.922
67.09000 393.286
67.26000 410.327
67.43000 417.006
67.60000 477.232
67.77000 508.429
67.94000 546.179
68.11000 616.990
68.28000 648.921
68.45000 768.582
68.62000 1111.506
68.79000 2207.581
68.96000 14498.436
69.13000 72279.391
69.30000 44279.641
69.47000 11752.389
69.64000 1441.834
69.81000 901.477
69.98000 741.668
70.00000 720.777

File: BTO_Mapping_Theta2Theta_24-09-2025_001_26_-8-090_5-878.xy
20.00000 585.284
20.17000 558.888
20.34000 568.818
20.51000 556.746
20.68000 562.631
20.85000 552.499
21.02000 557.203
21.19000 555.744
21.36000 554.109
21.53000 527.054
21.70000 582.569
21.87000 631.102
22.04000 756.122
22.21000 688.118
22.38000 585.656
22.55000 533.865
22.72000 529.668
22.89000 510.192
23.06000 520.782
23.23000 501.681
23.40000 505.751
23.57000 525.042
23.74000 510.945
23.91000 514.291
24.08000 497.223
24.25000 488.606
24.42000 488.792
24.59000 476.671
24.76000 483.763
24.93000 490.636
25.10000 491.315
25.27000 472.628
25.44000 462.117
25.61000 461.688
25.78000 469.202
25.95000 467.705
26.12000 438.428
26.29000 463.276
26.46000 445.110
26.63000 458.262
26.80000 444.993
26.97000 453.990
27.14000 442.472
27.31000 450.071
27.48000 431.999
27.65000 447.471
27.82000 416.744
27.99000 432.929
28.16000 435.324
28.33000 463.704
28.50000 421.319
28.67000 425.457
28.84000 419.824
29.01000 418.362
29.18000 416.081
29.35000 413.114
29.52000 399.310
29.69000 428.160
29.86000 441.971
30.03000 455.637
30.20000 441.085
30.37000 433.700
30.54000 443.313
30.71000 445.973
30.88000 485.179
31.05000 763.986
31.22000 2057.890
31.39000 3690.915
31.56000 2061.090
31.73000 728.433
31.90000 486.706
32.07000 417.510
32.24000 398.033
32.41000 387.390
32.58000 394.729
32.75000 387.015
32.92000 539.207
33.09000 420.880
33.26000 341.457
33.43000 341.784
33.60000 346.718
33.77000 351.583
33.94000 335.377
34.11000 344.149
34.28000 338.077
34.45000 327.201
34.62000 310.075
34.79000 325.122
34.96000 314.307
35.13000 328.834
35.30000 309.906
35.47000 319.910
35.64000 320.570
35.81000 319.758
35.98000 313.579
36.15000 300.216
36.32000 293.642
36.49000 306.057
36.66000 299.273
36.83000 313.169
37.00000 313.739
37.17000 303.269
37.34000 291.269
37.51000 300.552
37.68000 286.622
37.85000 305.911
38.02000 299.772
38.19000 317.281
38.36000 388.456
38.53000 823.989
38.70000 1407.760
38.87000 892.439
39.04000 387.874
39.21000 302.539
39.38000 291.842
39.55000 274.205
39.72000 278.244
39.89000 254.665
40.06000 261.141
40.23000 266.397
40.40000 262.281
40.57000 255.210
40.74000 255.507
40.91000 260.519
41.08000 251.029
41.25000 226.604
41.42000 242.203
41.59000 226.555
41.76000 240.129
41.93000 232.587
42.10000 234.959
42.27000 237.554
42.44000 233.620
42.61000 231.862
42.78000 225.021
42.95000 207.912
43.12000 240.358
43.29000 232.184
43.46000 227.225
43.63000 224.113
43.80000 229.016
43.97000 227.835
44.14000 231.116
44.31000 229.891
44.48000 215.181
44.65000 229.108
44.82000 283.140
44.99000 378.770
45.16000 392.280
45.33000 310.272
45.50000 255.262
45.67000 241.814
45.84000 232.777
46.01000 226.949
46.18000 204.843
46.35000 203.513
46.52000 213.088
46.69000 211.573
46.86000 201.321
47.03000 212.513
47.20000 195.648
47.37000 196.271
47.54000 189.799
47.71000 185.117
47.88000 185.770
48.05000 183.137
48.22000 170.291
48.39000 176.674
48.56000 180.970
48.73000 172.955
48.90000 175.896
49.07000 169.871
49.24000 192.874
49.41000 171.156
49.58000 187.671
49.75000 177.086
49.92000 176.631
50.09000 183.369
50.26000 186.632
50.43000 204.624
50.60000 264.968
50.77000 263.941
50.94000 218.697
51.11000 183.844
51.28000 174.405
51.45000 167.201
51.62000 149.464
51.79000 171.958
51.96000 163.383
52.13000 163.405
52.30000 166.791
52.47000 161.724
52.64000 147.242
52.81000 160.175
52.98000 154.429
53.15000 159.445
53.32000 167.115
53.49000 159.819
53.66000 157.590
53.83000 157.830
54.00000 168.828
54.17000 168.189
54.34000 162.782
54.51000 153.218
54.68000 166.164
54.85000 150.254
55.02000 162.883
55.19000 170.507
55.36000 177.531
55.53000 231.804
55.70000 422.163
55.87000 762.010
56.04000 724.766
56.21000 397.674
56.38000 237.576
56.55000 179.711
56.72000 168.103
56.89000 155.816
57.06000 147.361
57.23000 153.909
57.40000 147.885
57.57000 140.262
57.74000 138.962
57.91000 148.687
58.08000 139.705
58.25000 144.159
58.42000 139.668
58.59000 135.209
58.76000 139.894
58.93000 136.082
59.10000 138.945
59.27000 142.448
59.44000 134.249
59.61000 130.109
59.78000 140.822
59.95000 136.558
60.12000 129.215
60.29000 131.165
60.46000 139.222
60.63000 138.631
60.80000 135.283
60.97000 140.826
61.14000 132.270
61.31000 138.399
61.48000 145.861
61.65000 278.637
61.82000 204.370
61.99000 140.674
62.16000 142.057
62.33000 146.799
62.50000 147.988
62.67000 140.499
62.84000 147.893
63.01000 135.577
63.18000 142.393
63.35000 153.709
63.52000 145.248
63.69000 156.777
63.86000 138.183
64.03000 159.919
64.20000 150.595
64.37000 160.325
64.54000 178.311
64.71000 178.310
64.88000 179.321
65.05000 196.045
65.22000 280.755
65.39000 349.038
65.56000 448.237
65.73000 793.124
65.90000 1213.836
66.07000 440.708
66.24000 328.253
66.41000 470.268
66.58000 369.665
66.75000 309.657
66.92000 334.675
67.09000 353.940
67.26000 381.913
67.43000 408.161
67.60000 452.269
67.77000 461.700
67.94000 494.905
68.11000 553.896
68.28000 621.321
68.45000 707.828
68.62000 1064.358
68.79000 2087.319
68.96000 14575.794
69.13000 62276.219
69.30000 36190.766
69.47000 8451.619
69.64000 1243.723
69.81000 831.577
69.98000 684.041
70.00000 669.827