Folder: Master-Thesis/XRD/24-09-2025 Dep 3/XY Data (part 4)

File: BTO_Mapping_Theta2Theta_24-09-2025_001_28_-24-271_17-634.xy
20.00000 566.838
20.17000 568.191
20.34000 558.465
20.51000 537.666
20.68000 564.865
20.85000 537.446
21.02000 573.869
21.19000 575.613
21.36000 552.655
21.53000 547.423
21.70000 592.623
21.87000 771.039
22.04000 980.356
22.21000 751.922
22.38000 571.562
22.55000 551.953
22.72000 528.348
22.89000 522.009
23.06000 525.842
23.23000 525.381
23.40000 518.772
23.57000 487.827
23.74000 491.406
23.91000 495.513
24.08000 482.779
24.25000 495.582
24.42000 482.040
24.59000 492.884
24.76000 468.821
24.93000 478.246
25.10000 475.994
25.27000 481.111
25.44000 479.636
25.61000 458.226
25.78000 452.317
25.95000 485.417
26.12000 460.834
26.29000 458.879
26.46000 447.896
26.63000 436.970
26.80000 454.162
26.97000 451.432
27.14000 445.459
27.31000 447.796
27.48000 453.985
27.65000 439.263
27.82000 433.722
27.99000 450.574
28.16000 431.225
28.33000 418.333
28.50000 433.691
28.67000 438.660
28.84000 415.481
29.01000 425.747
29.18000 409.305
29.35000 427.172
29.52000 425.699
29.69000 429.699
29.86000 439.239
30.03000 471.656
30.20000 439.769
30.37000 424.333
30.54000 442.226
30.71000 447.523
30.88000 526.071
31.05000 765.435
31.22000 2161.365
31.39000 3619.942
31.56000 1855.869
31.73000 707.717
31.90000 497.794
32.07000 435.654
32.24000 403.743
32.41000 391.042
32.58000 376.408
32.75000 394.560
32.92000 622.892
33.09000 469.362
33.26000 365.395
33.43000 334.956
33.60000 343.860
33.77000 367.166
33.94000 340.453
34.11000 333.706
34.28000 335.426
34.45000 325.319
34.62000 321.848
34.79000 344.095
34.96000 318.230
35.13000 310.953
35.30000 308.811
35.47000 310.303
35.64000 319.459
35.81000 310.474
35.98000 289.211
36.15000 284.812
36.32000 310.478
36.49000 296.810
36.66000 317.573
36.83000 314.570
37.00000 291.610
37.17000 304.858
37.34000 295.594
37.51000 288.739
37.68000 292.923
37.85000 297.383
38.02000 289.581
38.19000 294.326
38.36000 377.510
38.53000 716.811
38.70000 1046.439
38.87000 653.844
39.04000 330.315
39.21000 305.009
39.38000 286.175
39.55000 271.601
39.72000 270.117
39.89000 259.123
40.06000 256.165
40.23000 265.100
40.40000 264.671
40.57000 254.792
40.74000 256.979
40.91000 245.211
41.08000 253.249
41.25000 248.101
41.42000 237.353
41.59000 237.458
41.76000 251.829
41.93000 236.201
42.10000 236.295
42.27000 233.476
42.44000 244.473
42.61000 234.339
42.78000 226.477
42.95000 234.039
43.12000 227.117
43.29000 219.622
43.46000 234.217
43.63000 236.042
43.80000 240.179
43.97000 231.311
44.14000 230.029
44.31000 240.353
44.48000 243.614
44.65000 274.614
44.82000 443.746
44.99000 608.308
45.16000 489.718
45.33000 329.846
45.50000 277.827
45.67000 246.301
45.84000 227.428
46.01000 222.315
46.18000 223.303
46.35000 201.690
46.52000 193.902
46.69000 201.314
46.86000 204.765
47.03000 206.610
47.20000 192.901
47.37000 202.389
47.54000 190.941
47.71000 185.844
47.88000 189.963
48.05000 191.559
48.22000 184.485
48.39000 189.355
48.56000 183.042
48.73000 182.613
48.90000 181.237
49.07000 183.296
49.24000 184.982
49.41000 174.568
49.58000 174.478
49.75000 183.456
49.92000 173.118
50.09000 169.110
50.26000 191.473
50.43000 218.374
50.60000 283.106
50.77000 276.513
50.94000 221.646
51.11000 193.190
51.28000 178.878
51.45000 173.635
51.62000 162.289
51.79000 176.393
51.96000 164.314
52.13000 175.411
52.30000 160.392
52.47000 157.175
52.64000 152.148
52.81000 153.667
52.98000 153.420
53.15000 162.079
53.32000 167.899
53.49000 165.168
53.66000 168.291
53.83000 153.330
54.00000 150.147
54.17000 159.152
54.34000 154.606
54.51000 168.226
54.68000 160.243
54.85000 166.529
55.02000 157.523
55.19000 177.769
55.36000 188.591
55.53000 253.594
55.70000 505.978
55.87000 832.624
56.04000 708.780
56.21000 375.601
56.38000 225.326
56.55000 181.096
56.72000 177.031
56.89000 166.947
57.06000 157.878
57.23000 148.171
57.40000 143.248
57.57000 154.387
57.74000 141.132
57.91000 135.141
58.08000 149.373
58.25000 138.696
58.42000 140.952
58.59000 136.347
58.76000 143.019
58.93000 143.277
59.10000 133.181
59.27000 142.178
59.44000 131.490
59.61000 143.486
59.78000 138.539
59.95000 131.177
60.12000 137.525
60.29000 134.149
60.46000 142.692
60.63000 136.668
60.80000 136.776
60.97000 138.151
61.14000 150.053
61.31000 150.078
61.48000 151.184
61.65000 326.809
61.82000 233.539
61.99000 147.610
62.16000 142.123
62.33000 139.745
62.50000 145.788
62.67000 150.750
62.84000 151.023
63.01000 145.383
63.18000 167.268
63.35000 145.464
63.52000 142.915
63.69000 155.812
63.86000 153.498
64.03000 156.048
64.20000 158.105
64.37000 164.027
64.54000 159.992
64.71000 173.515
64.88000 190.547
65.05000 214.195
65.22000 273.402
65.39000 358.310
65.56000 448.268
65.73000 882.747
65.90000 1535.893
66.07000 494.929
66.24000 376.606
66.41000 544.796
66.58000 394.911
66.75000 350.289
66.92000 386.447
67.09000 381.368
67.26000 430.639
67.43000 456.779
67.60000 477.492
67.77000 532.873
67.94000 564.273
68.11000 619.167
68.28000 704.592
68.45000 818.124
68.62000 1273.591
68.79000 2506.737
68.96000 19386.814
69.13000 82513.344
69.30000 49486.570
69.47000 12083.490
69.64000 1558.692
69.81000 969.456
69.98000 767.450
70.00000 757.143

File: BTO_Mapping_Theta2Theta_24-09-2025_001_29_-32-361_23-511.xy
20.00000 570.227
20.17000 554.053
20.34000 560.098
20.51000 566.727
20.68000 576.711
20.85000 558.102
21.02000 559.058
21.19000 563.259
21.36000 560.239
21.53000 561.707
21.70000 592.553
21.87000 797.465
22.04000 1008.132
22.21000 717.234
22.38000 580.533
22.55000 537.121
22.72000 523.516
22.89000 519.055
23.06000 501.039
23.23000 495.016
23.40000 512.014
23.57000 505.022
23.74000 486.085
23.91000 495.445
24.08000 493.716
24.25000 489.284
24.42000 479.455
24.59000 477.518
24.76000 481.911
24.93000 482.415
25.10000 489.833
25.27000 459.828
25.44000 470.257
25.61000 451.307
25.78000 471.189
25.95000 473.809
26.12000 462.933
26.29000 490.302
26.46000 442.228
26.63000 443.587
26.80000 449.596
26.97000 453.490
27.14000 466.549
27.31000 440.283
27.48000 439.077
27.65000 432.746
27.82000 420.314
27.99000 441.950
28.16000 440.132
28.33000 454.589
28.50000 444.657
28.67000 441.879
28.84000 427.064
29.01000 424.209
29.18000 426.401
29.35000 414.572
29.52000 419.105
29.69000 424.545
29.86000 472.688
30.03000 462.158
30.20000 459.076
30.37000 449.433
30.54000 457.963
30.71000 475.900
30.88000 537.487
31.05000 880.840
31.22000 2808.083
31.39000 4382.504
31.56000 1965.934
31.73000 717.831
31.90000 471.868
32.07000 444.181
32.24000 417.248
32.41000 403.489
32.58000 383.409
32.75000 394.380
32.92000 661.290
33.09000 495.593
33.26000 383.389
33.43000 342.987
33.60000 340.198
33.77000 361.212
33.94000 339.859
34.11000 349.026
34.28000 330.649
34.45000 343.357
34.62000 333.563
34.79000 324.499
34.96000 327.603
35.13000 322.146
35.30000 307.303
35.47000 317.631
35.64000 319.000
35.81000 309.574
35.98000 311.855
36.15000 317.356
36.32000 317.678
36.49000 303.080
36.66000 295.647
36.83000 308.917
37.00000 313.559
37.17000 283.548
37.34000 297.312
37.51000 297.494
37.68000 293.882
37.85000 281.856
38.02000 289.954
38.19000 307.965
38.36000 362.358
38.53000 638.908
38.70000 866.979
38.87000 521.880
39.04000 345.535
39.21000 289.563
39.38000 280.275
39.55000 267.797
39.72000 272.934
39.89000 254.275
40.06000 263.444
40.23000 267.195
40.40000 259.826
40.57000 257.717
40.74000 265.803
40.91000 261.424
41.08000 239.142
41.25000 232.195
41.42000 255.407
41.59000 246.706
41.76000 245.539
41.93000 230.309
42.10000 241.546
42.27000 237.189
42.44000 234.977
42.61000 233.162
42.78000 236.495
42.95000 231.423
43.12000 218.033
43.29000 222.196
43.46000 230.111
43.63000 223.250
43.80000 208.705
43.97000 227.418
44.14000 223.224
44.31000 241.227
44.48000 251.370
44.65000 328.213
44.82000 515.550
44.99000 630.199
45.16000 463.963
45.33000 305.252
45.50000 271.064
45.67000 254.260
45.84000 228.410
46.01000 208.436
46.18000 213.070
46.35000 218.029
46.52000 209.961
46.69000 202.607
46.86000 187.125
47.03000 203.127
47.20000 199.962
47.37000 197.183
47.54000 186.783
47.71000 200.478
47.88000 177.756
48.05000 190.304
48.22000 188.467
48.39000 178.829
48.56000 195.021
48.73000 189.163
48.90000 186.276
49.07000 186.105
49.24000 183.589
49.41000 184.148
49.58000 186.034
49.75000 173.828
49.92000 180.793
50.09000 188.489
50.26000 196.551
50.43000 233.441
50.60000 301.733
50.77000 269.981
50.94000 221.277
51.11000 204.362
51.28000 182.721
51.45000 169.738
51.62000 172.800
51.79000 163.087
51.96000 167.029
52.13000 161.968
52.30000 157.250
52.47000 166.071
52.64000 165.401
52.81000 151.600
52.98000 150.856
53.15000 158.775
53.32000 177.335
53.49000 164.769
53.66000 161.088
53.83000 154.656
54.00000 167.420
54.17000 164.812
54.34000 158.076
54.51000 170.798
54.68000 170.438
54.85000 164.494
55.02000 170.954
55.19000 167.780
55.36000 184.569
55.53000 277.418
55.70000 557.311
55.87000 844.433
56.04000 648.836
56.21000 364.081
56.38000 210.365
56.55000 165.252
56.72000 154.275
56.89000 166.904
57.06000 150.354
57.23000 141.247
57.40000 146.782
57.57000 145.087
57.74000 144.574
57.91000 142.375
58.08000 147.066
58.25000 139.721
58.42000 146.751
58.59000 142.215
58.76000 132.786
58.93000 135.847
59.10000 134.037
59.27000 128.940
59.44000 131.845
59.61000 127.705
59.78000 145.010
59.95000 140.019
60.12000 138.970
60.29000 129.559
60.46000 133.838
60.63000 130.758
60.80000 133.965
60.97000 130.492
61.14000 132.771
61.31000 131.575
61.48000 148.011
61.65000 360.514
61.82000 260.452
61.99000 144.674
62.16000 145.611
62.33000 143.194
62.50000 143.991
62.67000 135.191
62.84000 145.038
63.01000 148.624
63.18000 147.694
63.35000 149.140
63.52000 157.963
63.69000 156.852
63.86000 160.697
64.03000 174.162
64.20000 166.692
64.37000 169.344
64.54000 169.198
64.71000 184.335
64.88000 182.433
65.05000 225.697
65.22000 310.325
65.39000 425.796
65.56000 501.376
65.73000 979.887
65.90000 1778.627
66.07000 537.599
66.24000 397.642
66.41000 623.118
66.58000 418.361
66.75000 355.746
66.92000 378.698
67.09000 403.010
67.26000 453.031
67.43000 473.896
67.60000 500.639
67.77000 542.987
67.94000 617.636
68.11000 656.308
68.28000 752.444
68.45000 891.065
68.62000 1367.405
68.79000 2722.347
68.96000 22247.535
69.13000 94207.789
69.30000 56745.098
69.47000 14003.481
69.64000 1653.713
69.81000 1073.276
69.98000 799.759
70.00000 796.042

File: BTO_Mapping_Theta2Theta_24-09-2025_001_33_-39-126_8-316.xy
20.00000 602.611
20.17000 537.384
20.34000 574.338
20.51000 555.923
20.68000 562.424
20.85000 552.328
21.02000 568.180
21.19000 549.717
21.36000 553.571
21.53000 551.676
21.70000 674.235
21.87000 928.885
22.04000 961.748
22.21000 654.373
22.38000 571.434
22.55000 541.705
22.72000 528.392
22.89000 530.683
23.06000 521.395
23.23000 521.163
23.40000 518.890
23.57000 501.471
23.74000 482.890
23.91000 516.024
24.08000 507.176
24.25000 488.493
24.42000 486.774
24.59000 491.717
24.76000 501.155
24.93000 489.523
25.10000 485.859
25.27000 476.192
25.44000 484.928
25.61000 481.509
25.78000 468.043
25.95000 464.827
26.12000 485.411
26.29000 469.672
26.46000 468.490
26.63000 458.354
26.80000 459.922
26.97000 446.962
27.14000 460.725
27.31000 464.575
27.48000 441.034
27.65000 434.836
27.82000 436.799
27.99000 443.664
28.16000 463.172
28.33000 440.115
28.50000 442.610
28.67000 422.251
28.84000 419.574
29.01000 430.396
29.18000 412.507
29.35000 417.506
29.52000 423.669
29.69000 448.718
29.86000 467.733
30.03000 465.740
30.20000 425.467
30.37000 460.116
30.54000 468.124
30.71000 467.115
30.88000 647.689
31.05000 1651.203
31.22000 4329.766
31.39000 3466.934
31.56000 1107.828
31.73000 555.128
31.90000 448.121
32.07000 407.326
32.24000 416.000
32.41000 396.775
32.58000 389.474
32.75000 399.496
32.92000 670.309
33.09000 504.982
33.26000 349.485
33.43000 352.385
33.60000 354.790
33.77000 357.412
33.94000 350.858
34.11000 334.048
34.28000 332.172
34.45000 339.340
34.62000 323.537
34.79000 333.350
34.96000 330.002
35.13000 326.892
35.30000 332.698
35.47000 305.540
35.64000 314.781
35.81000 315.032
35.98000 303.256
36.15000 308.259
36.32000 318.963
36.49000 310.614
36.66000 309.513
36.83000 298.075
37.00000 313.403
37.17000 304.126
37.34000 297.856
37.51000 294.730
37.68000 308.849
37.85000 306.257
38.02000 324.003
38.19000 358.760
38.36000 452.123
38.53000 636.131
38.70000 591.036
38.87000 378.785
39.04000 300.659
39.21000 282.480
39.38000 271.165
39.55000 263.212
39.72000 278.577
39.89000 272.622
40.06000 267.373
40.23000 255.966
40.40000 251.931
40.57000 238.301
40.74000 254.827
40.91000 254.665
41.08000 256.759
41.25000 247.255
41.42000 254.412
41.59000 254.372
41.76000 222.467
41.93000 231.095
42.10000 253.391
42.27000 236.783
42.44000 235.934
42.61000 233.796
42.78000 232.340
42.95000 240.292
43.12000 242.096
43.29000 227.443
43.46000 224.420
43.63000 240.197
43.80000 245.964
43.97000 239.927
44.14000 237.716
44.31000 254.668
44.48000 312.459
44.65000 453.974
44.82000 609.141
44.99000 573.000
45.16000 377.952
45.33000 307.697
45.50000 255.933
45.67000 238.706
45.84000 223.649
46.01000 215.347
46.18000 228.062
46.35000 197.349
46.52000 208.834
46.69000 211.647
46.86000 200.485
47.03000 202.664
47.20000 194.322
47.37000 198.611
47.54000 191.496
47.71000 192.299
47.88000 192.608
48.05000 178.854
48.22000 185.000
48.39000 186.105
48.56000 190.076
48.73000 193.753
48.90000 184.147
49.07000 176.031
49.24000 178.301
49.41000 192.125
49.58000 184.684
49.75000 185.048
49.92000 193.881
50.09000 201.001
50.26000 246.362
50.43000 283.077
50.60000 307.129
50.77000 237.516
50.94000 198.226
51.11000 189.532
51.28000 169.961
51.45000 177.116
51.62000 177.017
51.79000 170.873
51.96000 160.708
52.13000 166.234
52.30000 173.971
52.47000 173.463
52.64000 166.226
52.81000 162.777
52.98000 170.750
53.15000 176.503
53.32000 161.868
53.49000 160.157
53.66000 154.477
53.83000 162.240
54.00000 158.867
54.17000 167.678
54.34000 169.157
54.51000 172.449
54.68000 167.689
54.85000 167.423
55.02000 186.836
55.19000 188.766
55.36000 257.789
55.53000 471.824
55.70000 769.049
55.87000 690.310
56.04000 407.527
56.21000 233.514
56.38000 178.982
56.55000 180.398
56.72000 155.487
56.89000 150.187
57.06000 147.825
57.23000 149.846
57.40000 154.744
57.57000 155.447
57.74000 140.982
57.91000 144.008
58.08000 145.804
58.25000 139.029
58.42000 146.128
58.59000 128.349
58.76000 137.809
58.93000 142.291
59.10000 146.838
59.27000 133.955
59.44000 138.177
59.61000 130.746
59.78000 133.215
59.95000 137.004
60.12000 136.422
60.29000 130.579
60.46000 138.446
60.63000 137.284
60.80000 132.688
60.97000 137.450
61.14000 141.801
61.31000 135.176
61.48000 153.681
61.65000 414.123
61.82000 257.940
61.99000 153.041
62.16000 143.754
62.33000 145.783
62.50000 154.044
62.67000 142.706
62.84000 157.532
63.01000 145.112
63.18000 148.555
63.35000 150.341
63.52000 150.710
63.69000 152.814
63.86000 159.006
64.03000 166.100
64.20000 169.021
64.37000 179.867
64.54000 182.457
64.71000 195.452
64.88000 237.967
65.05000 330.586
65.22000 440.797
65.39000 457.351
65.56000 420.575
65.73000 1016.347
65.90000 1905.870
66.07000 561.496
66.24000 412.325
66.41000 651.398
66.58000 446.326
66.75000 393.952
66.92000 431.387
67.09000 444.772
67.26000 482.949
67.43000 501.574
67.60000 546.728
67.77000 610.311
67.94000 641.757
68.11000 676.151
68.28000 817.621
68.45000 937.882
68.62000 1449.354
68.79000 2941.533
68.96000 24226.338
69.13000 106162.594
69.30000 62080.301
69.47000 14464.527
69.64000 1847.077
69.81000 1097.464
69.98000 865.645
70.00000 856.129

File: BTO_Mapping_Theta2Theta_24-09-2025_001_39_-16-180_-11-756.xy
20.00000 590.070
20.17000 565.383
20.34000 563.348
20.51000 553.719
20.68000 542.213
20.85000 554.808
21.02000 555.760
21.19000 553.408
21.36000 543.205
21.53000 574.356
21.70000 583.387
21.87000 709.430
22.04000 902.829
22.21000 709.945
22.38000 594.944
22.55000 535.446
22.72000 536.101
22.89000 522.822
23.06000 489.137
23.23000 499.851
23.40000 519.057
23.57000 498.748
23.74000 502.310
23.91000 516.423
24.08000 488.083
24.25000 479.222
24.42000 485.700
24.59000 482.683
24.76000 482.523
24.93000 498.821
25.10000 453.991
25.27000 450.054
25.44000 471.492
25.61000 455.040
25.78000 470.635
25.95000 468.359
26.12000 443.342
26.29000 456.144
26.46000 451.213
26.63000 429.249
26.80000 467.516
26.97000 424.125
27.14000 436.604
27.31000 431.548
27.48000 448.290
27.65000 437.385
27.82000 458.592
27.99000 456.530
28.16000 411.330
28.33000 432.349
28.50000 417.761
28.67000 440.934
28.84000 414.181
29.01000 417.525
29.18000 395.838
29.35000 421.819
29.52000 401.439
29.69000 430.440
29.86000 444.149
30.03000 453.318
30.20000 441.843
30.37000 425.106
30.54000 436.084
30.71000 460.110
30.88000 499.583
31.05000 822.811
31.22000 2219.027
31.39000 3595.046
31.56000 1807.203
31.73000 672.742
31.90000 483.249
32.07000 406.630
32.24000 406.177
32.41000 390.096
32.58000 377.312
32.75000 369.915
32.92000 576.962
33.09000 436.802
33.26000 372.257
33.43000 348.275
33.60000 343.747
33.77000 329.601
33.94000 333.099
34.11000 355.856
34.28000 341.401
34.45000 327.150
34.62000 334.681
34.79000 337.308
34.96000 324.598
35.13000 311.411
35.30000 313.416
35.47000 310.200
35.64000 313.931
35.81000 311.979
35.98000 301.080
36.15000 297.208
36.32000 291.822
36.49000 302.568
36.66000 289.839
36.83000 302.198
37.00000 304.613
37.17000 293.480
37.34000 301.473
37.51000 293.708
37.68000 294.717
37.85000 301.862
38.02000 291.274
38.19000 318.169
38.36000 414.085
38.53000 822.137
38.70000 1246.799
38.87000 731.578
39.04000 341.296
39.21000 289.089
39.38000 276.962
39.55000 274.433
39.72000 277.951
39.89000 265.547
40.06000 259.609
40.23000 245.423
40.40000 263.438
40.57000 273.568
40.74000 263.772
40.91000 247.237
41.08000 231.427
41.25000 242.427
41.42000 243.653
41.59000 231.577
41.76000 242.827
41.93000 258.501
42.10000 229.431
42.27000 233.898
42.44000 228.603
42.61000 233.852
42.78000 227.453
42.95000 233.528
43.12000 238.773
43.29000 226.061
43.46000 217.576
43.63000 233.044
43.80000 219.661
43.97000 222.685
44.14000 219.934
44.31000 236.415
44.48000 239.169
44.65000 263.406
44.82000 353.929
44.99000 506.793
45.16000 431.999
45.33000 328.967
45.50000 286.860
45.67000 252.809
45.84000 226.486
46.01000 228.474
46.18000 215.031
46.35000 202.825
46.52000 207.406
46.69000 217.325
46.86000 186.657
47.03000 194.641
47.20000 187.532
47.37000 191.288
47.54000 184.216
47.71000 190.463
47.88000 191.834
48.05000 186.276
48.22000 184.355
48.39000 190.963
48.56000 174.282
48.73000 189.988
48.90000 179.886
49.07000 177.521
49.24000 175.904
49.41000 183.437
49.58000 187.300
49.75000 186.815
49.92000 181.891
50.09000 189.907
50.26000 187.724
50.43000 215.284
50.60000 275.291
50.77000 275.263
50.94000 220.676
51.11000 197.913
51.28000 172.816
51.45000 167.785
51.62000 163.609
51.79000 153.172
51.96000 163.722
52.13000 163.540
52.30000 165.019
52.47000 163.749
52.64000 157.747
52.81000 168.105
52.98000 170.139
53.15000 157.512
53.32000 178.504
53.49000 160.057
53.66000 169.865
53.83000 155.973
54.00000 155.000
54.17000 149.218
54.34000 163.634
54.51000 157.804
54.68000 157.436
54.85000 143.854
55.02000 160.297
55.19000 161.214
55.36000 193.686
55.53000 253.829
55.70000 479.478
55.87000 823.178
56.04000 714.446
56.21000 376.745
56.38000 232.914
56.55000 174.704
56.72000 157.074
56.89000 152.089
57.06000 153.407
57.23000 150.170
57.40000 151.865
57.57000 148.158
57.74000 144.649
57.91000 139.779
58.08000 142.333
58.25000 144.800
58.42000 139.720
58.59000 140.615
58.76000 135.098
58.93000 129.217
59.10000 129.390
59.27000 139.907
59.44000 137.559
59.61000 124.321
59.78000 135.565
59.95000 133.847
60.12000 130.912
60.29000 135.994
60.46000 136.387
60.63000 144.971
60.80000 137.946
60.97000 132.513
61.14000 150.591
61.31000 127.496
61.48000 147.772
61.65000 291.924
61.82000 211.284
61.99000 144.964
62.16000 134.069
62.33000 148.073
62.50000 142.521
62.67000 142.462
62.84000 131.644
63.01000 144.327
63.18000 145.744
63.35000 147.722
63.52000 144.186
63.69000 154.033
63.86000 154.099
64.03000 162.067
64.20000 161.177
64.37000 157.640
64.54000 165.910
64.71000 167.237
64.88000 192.316
65.05000 207.122
65.22000 264.263
65.39000 357.782
65.56000 438.054
65.73000 821.027
65.90000 1359.010
66.07000 436.243
66.24000 340.192
66.41000 534.770
66.58000 380.631
66.75000 338.724
66.92000 345.165
67.09000 377.987
67.26000 394.449
67.43000 416.129
67.60000 482.451
67.77000 495.163
67.94000 548.932
68.11000 604.775
68.28000 662.170
68.45000 772.475
68.62000 1182.921
68.79000 2278.332
68.96000 17935.359
69.13000 71617.734
69.30000 41527.859
69.47000 9392.229
69.64000 1357.762
69.81000 895.226
69.98000 695.851
70.00000 689.629

File: BTO_Mapping_Theta2Theta_24-09-2025_001_40_-24-271_-17-634.xy
20.00000 557.815
20.17000 559.920
20.34000 535.814
20.51000 572.959
20.68000 564.247
20.85000 555.800
21.02000 550.331
21.19000 537.027
21.36000 542.109
21.53000 570.101
21.70000 580.084
21.87000 817.826
22.04000 953.175
22.21000 718.543
22.38000 564.875
22.55000 548.793
22.72000 528.080
22.89000 524.455
23.06000 529.762
23.23000 528.279
23.40000 494.351
23.57000 517.732
23.74000 493.051
23.91000 499.331
24.08000 493.266
24.25000 482.743
24.42000 494.109
24.59000 468.987
24.76000 476.944
24.93000 496.894
25.10000 478.023
25.27000 485.803
25.44000 463.562
25.61000 463.987
25.78000 465.692
25.95000 479.285
26.12000 463.680
26.29000 456.105
26.46000 463.026
26.63000 453.739
26.80000 460.584
26.97000 440.499
27.14000 447.508
27.31000 449.348
27.48000 455.445
27.65000 442.044
27.82000 444.222
27.99000 449.264
28.16000 442.175
28.33000 434.562
28.50000 427.300
28.67000 424.133
28.84000 408.208
29.01000 411.417
29.18000 430.193
29.35000 415.095
29.52000 409.279
29.69000 414.773
29.86000 435.512
30.03000 455.043
30.20000 431.814
30.37000 431.322
30.54000 436.009
30.71000 445.509
30.88000 521.419
31.05000 869.883
31.22000 2417.087
31.39000 3569.773
31.56000 1699.452
31.73000 677.323
31.90000 469.236
32.07000 414.079
32.24000 402.041
32.41000 399.519
32.58000 389.823
32.75000 398.745
32.92000 610.863
33.09000 465.929
33.26000 363.031
33.43000 361.428
33.60000 339.655
33.77000 343.617
33.94000 338.243
34.11000 346.586
34.28000 314.931
34.45000 323.138
34.62000 336.950
34.79000 321.545
34.96000 301.406
35.13000 315.926
35.30000 313.210
35.47000 317.825
35.64000 322.120
35.81000 305.607
35.98000 303.592
36.15000 301.837
36.32000 296.307
36.49000 289.872
36.66000 286.783
36.83000 311.831
37.00000 298.040
37.17000 306.526
37.34000 295.420
37.51000 312.142
37.68000 294.434
37.85000 307.009
38.02000 295.084
38.19000 312.061
38.36000 422.747
38.53000 816.506
38.70000 1056.791
38.87000 603.935
39.04000 339.455
39.21000 291.411
39.38000 280.387
39.55000 278.968
39.72000 265.306
39.89000 257.016
40.06000 253.601
40.23000 262.669
40.40000 254.512
40.57000 248.451
40.74000 254.591
40.91000 259.831
41.08000 240.808
41.25000 251.661
41.42000 248.900
41.59000 232.615
41.76000 238.284
41.93000 232.145
42.10000 233.656
42.27000 234.497
42.44000 242.883
42.61000 234.596
42.78000 228.355
42.95000 233.763
43.12000 216.992
43.29000 240.543
43.46000 226.804
43.63000 223.170
43.80000 228.564
43.97000 231.576
44.14000 221.712
44.31000 236.412
44.48000 240.183
44.65000 291.600
44.82000 445.860
44.99000 598.305
45.16000 466.972
45.33000 338.863
45.50000 281.894
45.67000 237.706
45.84000 232.033
46.01000 215.275
46.18000 213.145
46.35000 195.472
46.52000 208.178
46.69000 191.093
46.86000 189.022
47.03000 200.712
47.20000 200.108
47.37000 190.008
47.54000 190.606
47.71000 188.951
47.88000 181.471
48.05000 189.891
48.22000 191.707
48.39000 196.507
48.56000 182.679
48.73000 180.350
48.90000 173.366
49.07000 192.600
49.24000 185.021
49.41000 169.835
49.58000 174.502
49.75000 179.347
49.92000 178.920
50.09000 185.926
50.26000 189.597
50.43000 231.308
50.60000 292.141
50.77000 254.867
50.94000 213.451
51.11000 190.972
51.28000 180.427
51.45000 177.492
51.62000 162.529
51.79000 165.751
51.96000 169.593
52.13000 164.060
52.30000 166.549
52.47000 160.770
52.64000 163.724
52.81000 164.057
52.98000 160.249
53.15000 161.902
53.32000 169.710
53.49000 161.831
53.66000 153.800
53.83000 166.599
54.00000 161.910
54.17000 154.915
54.34000 156.795
54.51000 165.142
54.68000 163.884
54.85000 163.407
55.02000 168.303
55.19000 176.645
55.36000 197.383
55.53000 273.605
55.70000 566.776
55.87000 892.091
56.04000 694.285
56.21000 353.210
56.38000 212.793
56.55000 184.032
56.72000 161.222
56.89000 152.947
57.06000 158.102
57.23000 141.526
57.40000 156.550
57.57000 150.178
57.74000 140.555
57.91000 143.684
58.08000 131.765
58.25000 151.166
58.42000 139.994
58.59000 144.897
58.76000 144.450
58.93000 142.263
59.10000 146.407
59.27000 139.589
59.44000 137.673
59.61000 133.478
59.78000 129.026
59.95000 134.779
60.12000 138.677
60.29000 135.774
60.46000 127.044
60.63000 134.346
60.80000 134.411
60.97000 136.432
61.14000 130.595
61.31000 141.227
61.48000 165.316
61.65000 326.851
61.82000 219.982
61.99000 144.213
62.16000 155.012
62.33000 152.010
62.50000 137.040
62.67000 142.105
62.84000 155.256
63.01000 148.888
63.18000 145.870
63.35000 145.045
63.52000 150.194
63.69000 152.662
63.86000 153.445
64.03000 149.466
64.20000 167.469
64.37000 168.275
64.54000 178.278
64.71000 175.917
64.88000 197.812
65.05000 227.609
65.22000 292.067
65.39000 369.281
65.56000 451.790
65.73000 920.174
65.90000 1572.750
66.07000 462.573
66.24000 381.446
66.41000 540.335
66.58000 398.282
66.75000 345.675
66.92000 359.566
67.09000 410.210
67.26000 409.337
67.43000 449.319
67.60000 486.890
67.77000 542.225
67.94000 558.280
68.11000 619.738
68.28000 709.774
68.45000 816.481
68.62000 1258.411
68.79000 2477.137
68.96000 20903.086
69.13000 82778.422
69.30000 48436.309
69.47000 11327.593
69.64000 1490.289
69.81000 966.862
69.98000 749.183
70.00000 750.374