Folder: Master-Thesis/XRD/24-09-2025 Dep 3/XY Data

File: BTO_Mapping_Theta2Theta_24-09-2025_001_01_0-000_0-000.xy
20.00000 548.890
20.17000 541.652
20.34000 541.904
20.51000 549.046
20.68000 546.126
20.85000 538.419
21.02000 531.022
21.19000 540.682
21.36000 544.624
21.53000 537.858
21.70000 541.722
21.87000 604.288
22.04000 662.447
22.21000 627.168
22.38000 588.146
22.55000 542.142
22.72000 502.136
22.89000 514.398
23.06000 505.094
23.23000 507.255
23.40000 493.813
23.57000 497.956
23.74000 494.494
23.91000 512.294
24.08000 489.300
24.25000 490.505
24.42000 490.505
24.59000 469.709
24.76000 466.294
24.93000 453.025
25.10000 495.237
25.27000 458.381
25.44000 456.458
25.61000 457.403
25.78000 462.658
25.95000 459.667
26.12000 456.439
26.29000 441.674
26.46000 454.229
26.63000 429.556
26.80000 453.178
26.97000 432.862
27.14000 447.162
27.31000 461.539
27.48000 435.331
27.65000 421.673
27.82000 429.725
27.99000 433.346
28.16000 443.919
28.33000 415.132
28.50000 420.027
28.67000 403.914
28.84000 435.150
29.01000 408.585
29.18000 403.664
29.35000 410.732
29.52000 398.339
29.69000 399.093
29.86000 403.961
30.03000 438.309
30.20000 438.161
30.37000 428.091
30.54000 431.080
30.71000 443.262
30.88000 469.472
31.05000 671.276
31.22000 1733.628
31.39000 3151.556
31.56000 1904.273
31.73000 711.099
31.90000 479.480
32.07000 425.384
32.24000 411.434
32.41000 385.861
32.58000 378.944
32.75000 368.444
32.92000 485.682
33.09000 412.252
33.26000 343.834
33.43000 354.751
33.60000 342.667
33.77000 331.456
33.94000 323.338
34.11000 342.753
34.28000 335.681
34.45000 337.740
34.62000 326.700
34.79000 340.308
34.96000 323.360
35.13000 315.627
35.30000 322.933
35.47000 317.834
35.64000 314.031
35.81000 312.654
35.98000 302.867
36.15000 290.148
36.32000 295.944
36.49000 287.381
36.66000 304.414
36.83000 311.713
37.00000 311.680
37.17000 312.952
37.34000 299.877
37.51000 307.119
37.68000 283.843
37.85000 298.198
38.02000 279.720
38.19000 314.006
38.36000 386.751
38.53000 781.004
38.70000 1519.917
38.87000 1015.624
39.04000 416.818
39.21000 304.335
39.38000 271.961
39.55000 271.662
39.72000 260.708
39.89000 284.761
40.06000 262.175
40.23000 253.452
40.40000 260.744
40.57000 260.817
40.74000 250.129
40.91000 246.151
41.08000 243.538
41.25000 234.897
41.42000 236.758
41.59000 233.507
41.76000 237.638
41.93000 241.543
42.10000 234.341
42.27000 233.607
42.44000 232.112
42.61000 223.010
42.78000 227.105
42.95000 228.246
43.12000 233.047
43.29000 222.305
43.46000 216.625
43.63000 220.066
43.80000 224.596
43.97000 213.456
44.14000 221.359
44.31000 221.344
44.48000 218.178
44.65000 227.201
44.82000 240.348
44.99000 321.374
45.16000 329.099
45.33000 291.563
45.50000 274.210
45.67000 252.410
45.84000 245.367
46.01000 232.344
46.18000 217.573
46.35000 221.886
46.52000 204.964
46.69000 200.797
46.86000 202.020
47.03000 198.166
47.20000 183.464
47.37000 191.517
47.54000 199.606
47.71000 187.755
47.88000 178.595
48.05000 183.359
48.22000 183.203
48.39000 173.899
48.56000 176.765
48.73000 179.261
48.90000 174.559
49.07000 175.774
49.24000 191.392
49.41000 171.741
49.58000 165.777
49.75000 181.952
49.92000 182.043
50.09000 171.934
50.26000 186.553
50.43000 191.958
50.60000 222.447
50.77000 240.309
50.94000 214.650
51.11000 181.018
51.28000 187.067
51.45000 167.113
51.62000 158.719
51.79000 167.703
51.96000 162.482
52.13000 161.992
52.30000 163.427
52.47000 162.925
52.64000 172.303
52.81000 158.827
52.98000 149.222
53.15000 154.473
53.32000 166.298
53.49000 177.000
53.66000 163.389
53.83000 151.172
54.00000 159.412
54.17000 148.341
54.34000 163.992
54.51000 154.844
54.68000 152.465
54.85000 160.956
55.02000 159.910
55.19000 165.421
55.36000 183.052
55.53000 226.965
55.70000 392.849
55.87000 774.983
56.04000 790.835
56.21000 485.302
56.38000 245.065
56.55000 185.946
56.72000 175.996
56.89000 161.117
57.06000 152.323
57.23000 151.896
57.40000 151.264
57.57000 138.350
57.74000 145.405
57.91000 149.553
58.08000 150.280
58.25000 143.668
58.42000 127.060
58.59000 131.242
58.76000 134.708
58.93000 131.804
59.10000 131.274
59.27000 137.168
59.44000 127.194
59.61000 133.731
59.78000 141.672
59.95000 127.483
60.12000 129.327
60.29000 132.993
60.46000 124.780
60.63000 129.414
60.80000 136.817
60.97000 141.572
61.14000 130.705
61.31000 142.618
61.48000 150.600
61.65000 245.569
61.82000 201.400
61.99000 139.381
62.16000 135.675
62.33000 142.439
62.50000 136.769
62.67000 140.143
62.84000 141.005
63.01000 147.283
63.18000 135.188
63.35000 155.307
63.52000 141.098
63.69000 143.878
63.86000 156.361
64.03000 156.017
64.20000 154.939
64.37000 162.442
64.54000 167.376
64.71000 176.443
64.88000 189.067
65.05000 196.370
65.22000 220.587
65.39000 306.789
65.56000 377.878
65.73000 705.982
65.90000 1128.607
66.07000 384.280
66.24000 331.398
66.41000 454.843
66.58000 343.313
66.75000 311.448
66.92000 330.134
67.09000 347.816
67.26000 380.699
67.43000 405.718
67.60000 424.765
67.77000 449.097
67.94000 477.563
68.11000 531.189
68.28000 605.590
68.45000 701.370
68.62000 1006.794
68.79000 1882.332
68.96000 13255.433
69.13000 55774.535
69.30000 32032.258
69.47000 7243.256
69.64000 1156.367
69.81000 804.659
69.98000 665.218
70.00000 644.619

File: BTO_Mapping_Theta2Theta_24-09-2025_001_02_10-000_0-000.xy
20.00000 557.131
20.17000 559.244
20.34000 563.953
20.51000 550.642
20.68000 565.665
20.85000 556.133
21.02000 545.012
21.19000 538.203
21.36000 540.711
21.53000 557.875
21.70000 534.321
21.87000 583.487
22.04000 597.873
22.21000 590.392
22.38000 576.747
22.55000 545.741
22.72000 521.192
22.89000 522.015
23.06000 515.409
23.23000 489.237
23.40000 518.344
23.57000 492.951
23.74000 517.813
23.91000 497.153
24.08000 489.954
24.25000 492.515
24.42000 501.675
24.59000 482.403
24.76000 491.972
24.93000 473.624
25.10000 470.470
25.27000 468.811
25.44000 464.939
25.61000 470.242
25.78000 465.324
25.95000 456.786
26.12000 442.458
26.29000 461.883
26.46000 444.904
26.63000 439.299
26.80000 442.394
26.97000 444.019
27.14000 435.841
27.31000 441.051
27.48000 440.753
27.65000 419.748
27.82000 436.775
27.99000 436.300
28.16000 426.201
28.33000 426.886
28.50000 410.652
28.67000 427.575
28.84000 407.537
29.01000 399.590
29.18000 418.125
29.35000 420.384
29.52000 409.802
29.69000 400.937
29.86000 423.536
30.03000 428.869
30.20000 421.639
30.37000 425.754
30.54000 410.088
30.71000 426.306
30.88000 458.245
31.05000 555.240
31.22000 1150.528
31.39000 1994.209
31.56000 1403.323
31.73000 644.740
31.90000 439.921
32.07000 408.553
32.24000 389.355
32.41000 392.471
32.58000 394.418
32.75000 359.860
32.92000 462.752
33.09000 384.153
33.26000 366.828
33.43000 350.650
33.60000 343.662
33.77000 337.066
33.94000 325.223
34.11000 333.779
34.28000 340.127
34.45000 327.007
34.62000 330.683
34.79000 319.498
34.96000 325.500
35.13000 299.587
35.30000 312.197
35.47000 296.802
35.64000 309.066
35.81000 303.245
35.98000 297.705
36.15000 293.992
36.32000 310.886
36.49000 309.853
36.66000 304.049
36.83000 304.590
37.00000 315.078
37.17000 297.503
37.34000 296.388
37.51000 300.013
37.68000 279.659
37.85000 293.847
38.02000 305.991
38.19000 317.309
38.36000 357.622
38.53000 706.539
38.70000 1523.755
38.87000 1138.809
39.04000 419.138
39.21000 303.443
39.38000 275.445
39.55000 264.782
39.72000 280.104
39.89000 268.996
40.06000 257.713
40.23000 247.975
40.40000 262.613
40.57000 258.115
40.74000 246.982
40.91000 247.675
41.08000 237.010
41.25000 239.066
41.42000 240.037
41.59000 240.518
41.76000 238.797
41.93000 246.645
42.10000 229.125
42.27000 221.983
42.44000 232.446
42.61000 226.240
42.78000 234.379
42.95000 232.340
43.12000 219.195
43.29000 219.696
43.46000 228.413
43.63000 202.252
43.80000 222.966
43.97000 218.934
44.14000 214.952
44.31000 220.598
44.48000 221.634
44.65000 207.728
44.82000 240.895
44.99000 270.137
45.16000 275.781
45.33000 261.081
45.50000 244.826
45.67000 251.419
45.84000 237.290
46.01000 210.772
46.18000 217.481
46.35000 203.993
46.52000 201.410
46.69000 198.749
46.86000 195.351
47.03000 193.862
47.20000 194.630
47.37000 181.913
47.54000 189.904
47.71000 187.363
47.88000 184.590
48.05000 183.152
48.22000 186.922
48.39000 180.443
48.56000 193.313
48.73000 187.172
48.90000 173.182
49.07000 173.486
49.24000 180.382
49.41000 172.524
49.58000 177.829
49.75000 183.025
49.92000 168.521
50.09000 167.819
50.26000 173.907
50.43000 172.602
50.60000 197.751
50.77000 202.481
50.94000 197.120
51.11000 177.302
51.28000 172.752
51.45000 167.561
51.62000 170.473
51.79000 168.188
51.96000 155.812
52.13000 171.404
52.30000 173.322
52.47000 161.701
52.64000 170.408
52.81000 161.383
52.98000 159.289
53.15000 150.878
53.32000 162.742
53.49000 167.591
53.66000 166.802
53.83000 159.934
54.00000 159.491
54.17000 160.346
54.34000 158.772
54.51000 161.392
54.68000 155.068
54.85000 158.399
55.02000 169.636
55.19000 165.283
55.36000 171.360
55.53000 206.383
55.70000 379.982
55.87000 758.835
56.04000 901.560
56.21000 558.194
56.38000 281.643
56.55000 186.205
56.72000 178.343
56.89000 160.960
57.06000 149.222
57.23000 146.231
57.40000 144.981
57.57000 138.650
57.74000 145.834
57.91000 136.237
58.08000 140.452
58.25000 143.642
58.42000 132.458
58.59000 136.326
58.76000 131.780
58.93000 134.105
59.10000 134.876
59.27000 138.441
59.44000 139.983
59.61000 126.238
59.78000 132.371
59.95000 125.257
60.12000 128.497
60.29000 133.325
60.46000 136.560
60.63000 123.346
60.80000 129.136
60.97000 130.640
61.14000 126.670
61.31000 144.512
61.48000 138.701
61.65000 259.842
61.82000 185.921
61.99000 143.635
62.16000 142.670
62.33000 138.889
62.50000 140.814
62.67000 139.791
62.84000 133.775
63.01000 140.351
63.18000 135.564
63.35000 149.685
63.52000 148.119
63.69000 153.342
63.86000 152.451
64.03000 151.448
64.20000 163.311
64.37000 162.436
64.54000 152.202
64.71000 171.284
64.88000 165.938
65.05000 191.108
65.22000 208.778
65.39000 251.682
65.56000 311.416
65.73000 608.645
65.90000 1006.238
66.07000 373.131
66.24000 298.684
66.41000 407.929
66.58000 332.280
66.75000 297.239
66.92000 304.389
67.09000 347.997
67.26000 358.060
67.43000 380.087
67.60000 409.910
67.77000 433.441
67.94000 464.497
68.11000 515.656
68.28000 587.535
68.45000 681.440
68.62000 952.159
68.79000 1728.914
68.96000 11474.804
69.13000 50532.762
69.30000 29750.080
69.47000 6883.118
69.64000 1144.854
69.81000 790.303
69.98000 651.373
70.00000 644.679

File: BTO_Mapping_Theta2Theta_24-09-2025_001_05_40-000_0-000.xy
20.00000 545.480
20.17000 570.123
20.34000 564.790
20.51000 576.922
20.68000 546.015
20.85000 544.672
21.02000 541.454
21.19000 562.677
21.36000 568.619
21.53000 548.672
21.70000 566.389
21.87000 598.224
22.04000 611.274
22.21000 595.735
22.38000 557.527
22.55000 524.243
22.72000 517.349
22.89000 524.728
23.06000 537.683
23.23000 527.387
23.40000 532.310
23.57000 516.840
23.74000 563.813
23.91000 555.958
24.08000 550.484
24.25000 529.843
24.42000 501.864
24.59000 482.196
24.76000 513.553
24.93000 492.376
25.10000 473.739
25.27000 501.396
25.44000 459.884
25.61000 463.599
25.78000 469.805
25.95000 455.852
26.12000 469.858
26.29000 445.910
26.46000 447.618
26.63000 440.462
26.80000 461.318
26.97000 439.615
27.14000 454.980
27.31000 427.647
27.48000 441.785
27.65000 461.916
27.82000 433.389
27.99000 443.371
28.16000 426.443
28.33000 453.960
28.50000 445.454
28.67000 437.563
28.84000 421.127
29.01000 410.354
29.18000 419.778
29.35000 412.164
29.52000 417.321
29.69000 422.678
29.86000 413.402
30.03000 427.079
30.20000 406.957
30.37000 406.485
30.54000 431.286
30.71000 450.629
30.88000 476.876
31.05000 536.165
31.22000 829.750
31.39000 1086.414
31.56000 877.622
31.73000 549.628
31.90000 458.768
32.07000 423.133
32.24000 405.760
32.41000 396.471
32.58000 379.514
32.75000 377.048
32.92000 482.958
33.09000 404.812
33.26000 359.538
33.43000 345.159
33.60000 342.421
33.77000 329.302
33.94000 359.115
34.11000 369.919
34.28000 384.685
34.45000 360.811
34.62000 351.034
34.79000 318.044
34.96000 330.252
35.13000 317.650
35.30000 320.435
35.47000 310.338
35.64000 318.102
35.81000 307.705
35.98000 315.238
36.15000 311.190
36.32000 302.238
36.49000 294.052
36.66000 319.587
36.83000 301.514
37.00000 309.821
37.17000 294.260
37.34000 298.777
37.51000 296.089
37.68000 293.376
37.85000 311.228
38.02000 304.269
38.19000 318.933
38.36000 389.081
38.53000 621.572
38.70000 948.722
38.87000 685.020
39.04000 361.500
39.21000 290.084
39.38000 292.441
39.55000 284.425
39.72000 267.088
39.89000 271.354
40.06000 268.141
40.23000 258.670
40.40000 264.581
40.57000 265.169
40.74000 248.984
40.91000 246.492
41.08000 234.051
41.25000 247.274
41.42000 246.151
41.59000 240.146
41.76000 249.176
41.93000 257.414
42.10000 239.046
42.27000 264.505
42.44000 248.796
42.61000 245.688
42.78000 234.156
42.95000 224.507
43.12000 230.000
43.29000 237.130
43.46000 238.311
43.63000 221.252
43.80000 240.277
43.97000 228.699
44.14000 236.071
44.31000 231.258
44.48000 234.283
44.65000 251.030
44.82000 257.614
44.99000 273.446
45.16000 273.677
45.33000 257.999
45.50000 229.452
45.67000 228.340
45.84000 212.023
46.01000 214.838
46.18000 201.838
46.35000 203.426
46.52000 199.851
46.69000 212.966
46.86000 196.859
47.03000 194.807
47.20000 195.661
47.37000 189.532
47.54000 198.552
47.71000 209.393
47.88000 185.290
48.05000 183.525
48.22000 172.938
48.39000 185.948
48.56000 193.440
48.73000 173.634
48.90000 183.707
49.07000 190.420
49.24000 176.440
49.41000 186.652
49.58000 182.191
49.75000 185.402
49.92000 168.661
50.09000 181.455
50.26000 185.781
50.43000 186.739
50.60000 192.723
50.77000 192.933
50.94000 182.349
51.11000 180.807
51.28000 163.745
51.45000 171.606
51.62000 175.144
51.79000 166.695
51.96000 170.191
52.13000 172.703
52.30000 162.243
52.47000 153.289
52.64000 161.753
52.81000 164.176
52.98000 161.480
53.15000 151.128
53.32000 167.037
53.49000 163.081
53.66000 156.605
53.83000 155.252
54.00000 161.296
54.17000 168.088
54.34000 158.813
54.51000 161.501
54.68000 158.421
54.85000 165.430
55.02000 173.445
55.19000 183.204
55.36000 189.793
55.53000 233.109
55.70000 329.779
55.87000 452.793
56.04000 441.076
56.21000 311.126
56.38000 230.628
56.55000 189.227
56.72000 172.090
56.89000 158.270
57.06000 162.712
57.23000 147.524
57.40000 143.015
57.57000 152.224
57.74000 144.459
57.91000 142.490
58.08000 138.070
58.25000 147.780
58.42000 142.611
58.59000 146.497
58.76000 129.992
58.93000 142.577
59.10000 131.979
59.27000 136.417
59.44000 141.034
59.61000 139.388
59.78000 134.136
59.95000 140.761
60.12000 134.128
60.29000 132.105
60.46000 132.266
60.63000 135.672
60.80000 133.134
60.97000 144.286
61.14000 138.567
61.31000 138.881
61.48000 140.320
61.65000 258.312
61.82000 197.871
61.99000 141.506
62.16000 140.941
62.33000 147.965
62.50000 144.399
62.67000 152.147
62.84000 146.045
63.01000 148.212
63.18000 140.257
63.35000 147.313
63.52000 149.556
63.69000 154.427
63.86000 150.913
64.03000 162.898
64.20000 160.867
64.37000 158.509
64.54000 157.065
64.71000 176.206
64.88000 176.344
65.05000 192.282
65.22000 200.186
65.39000 229.172
65.56000 251.152
65.73000 534.381
65.90000 1086.879
66.07000 366.702
66.24000 294.831
66.41000 433.412
66.58000 355.137
66.75000 324.563
66.92000 327.833
67.09000 343.477
67.26000 366.496
67.43000 399.188
67.60000 434.821
67.77000 457.669
67.94000 514.272
68.11000 538.302
68.28000 599.253
68.45000 687.607
68.62000 970.138
68.79000 1779.493
68.96000 10540.600
69.13000 53415.184
69.30000 31719.980
69.47000 7899.796
69.64000 1208.153
69.81000 795.127
69.98000 671.062
70.00000 649.667

File: BTO_Mapping_Theta2Theta_24-09-2025_001_06_9-135_4-067.xy
20.00000 559.074
20.17000 596.363
20.34000 556.212
20.51000 568.702
20.68000 575.203
20.85000 556.395
21.02000 547.037
21.19000 547.939
21.36000 558.743
21.53000 529.772
21.70000 560.275
21.87000 570.311
22.04000 608.761
22.21000 623.353
22.38000 570.827
22.55000 543.932
22.72000 515.520
22.89000 503.866
23.06000 505.572
23.23000 492.104
23.40000 492.101
23.57000 497.802
23.74000 499.117
23.91000 486.238
24.08000 490.898
24.25000 479.226
24.42000 495.008
24.59000 492.371
24.76000 479.154
24.93000 479.472
25.10000 467.725
25.27000 463.092
25.44000 464.511
25.61000 474.286
25.78000 467.805
25.95000 457.566
26.12000 457.285
26.29000 450.222
26.46000 448.253
26.63000 461.962
26.80000 428.000
26.97000 439.633
27.14000 441.690
27.31000 441.973
27.48000 449.077
27.65000 425.694
27.82000 430.582
27.99000 446.294
28.16000 427.683
28.33000 411.259
28.50000 434.924
28.67000 415.259
28.84000 423.229
29.01000 415.587
29.18000 406.359
29.35000 394.253
29.52000 405.413
29.69000 404.464
29.86000 424.279
30.03000 414.680
30.20000 425.080
30.37000 408.858
30.54000 419.850
30.71000 421.378
30.88000 442.969
31.05000 573.535
31.22000 1162.459
31.39000 2042.623
31.56000 1453.084
31.73000 646.124
31.90000 456.271
32.07000 421.729
32.24000 392.504
32.41000 383.483
32.58000 386.553
32.75000 374.165
32.92000 444.909
33.09000 402.968
33.26000 354.817
33.43000 349.440
33.60000 341.955
33.77000 348.757
33.94000 344.744
34.11000 338.862
34.28000 333.494
34.45000 337.364
34.62000 324.358
34.79000 328.170
34.96000 318.317
35.13000 312.698
35.30000 320.229
35.47000 305.454
35.64000 299.971
35.81000 319.347
35.98000 315.409
36.15000 294.004
36.32000 299.683
36.49000 306.083
36.66000 276.518
36.83000 307.235
37.00000 303.708
37.17000 319.090
37.34000 291.164
37.51000 285.458
37.68000 302.572
37.85000 282.419
38.02000 305.481
38.19000 308.232
38.36000 359.147
38.53000 688.360
38.70000 1515.742
38.87000 1138.363
39.04000 438.530
39.21000 306.798
39.38000 288.571
39.55000 277.082
39.72000 270.655
39.89000 268.809
40.06000 271.927
40.23000 262.846
40.40000 247.855
40.57000 251.301
40.74000 252.693
40.91000 247.887
41.08000 234.725
41.25000 238.833
41.42000 233.467
41.59000 238.574
41.76000 235.840
41.93000 245.734
42.10000 233.163
42.27000 243.344
42.44000 224.506
42.61000 234.476
42.78000 240.271
42.95000 235.641
43.12000 229.697
43.29000 233.615
43.46000 224.551
43.63000 225.935
43.80000 227.671
43.97000 215.659
44.14000 210.810
44.31000 229.248
44.48000 206.731
44.65000 224.445
44.82000 229.834
44.99000 258.501
45.16000 283.297
45.33000 258.374
45.50000 246.735
45.67000 231.418
45.84000 240.809
46.01000 215.770
46.18000 212.318
46.35000 200.102
46.52000 200.124
46.69000 199.928
46.86000 195.912
47.03000 200.037
47.20000 196.404
47.37000 174.178
47.54000 188.018
47.71000 181.379
47.88000 191.164
48.05000 180.573
48.22000 182.763
48.39000 192.270
48.56000 186.356
48.73000 174.228
48.90000 185.967
49.07000 179.273
49.24000 180.404
49.41000 167.915
49.58000 174.898
49.75000 169.843
49.92000 176.600
50.09000 172.395
50.26000 188.004
50.43000 186.798
50.60000 193.819
50.77000 216.503
50.94000 196.741
51.11000 190.160
51.28000 170.282
51.45000 164.073
51.62000 168.963
51.79000 156.233
51.96000 163.246
52.13000 167.411
52.30000 162.356
52.47000 161.006
52.64000 158.761
52.81000 158.880
52.98000 159.379
53.15000 168.012
53.32000 160.509
53.49000 157.200
53.66000 166.736
53.83000 153.246
54.00000 150.796
54.17000 150.647
54.34000 154.394
54.51000 151.681
54.68000 152.406
54.85000 155.189
55.02000 168.193
55.19000 163.476
55.36000 175.394
55.53000 216.418
55.70000 378.860
55.87000 744.488
56.04000 893.232
56.21000 560.433
56.38000 288.619
56.55000 190.712
56.72000 174.849
56.89000 150.211
57.06000 152.243
57.23000 146.187
57.40000 151.212
57.57000 135.191
57.74000 143.169
57.91000 145.307
58.08000 140.101
58.25000 137.599
58.42000 152.519
58.59000 137.288
58.76000 135.575
58.93000 135.393
59.10000 126.091
59.27000 133.208
59.44000 132.672
59.61000 130.875
59.78000 135.358
59.95000 127.367
60.12000 142.584
60.29000 125.592
60.46000 134.598
60.63000 130.899
60.80000 130.164
60.97000 122.328
61.14000 140.029
61.31000 134.815
61.48000 144.897
61.65000 244.517
61.82000 190.108
61.99000 138.542
62.16000 128.262
62.33000 135.099
62.50000 124.431
62.67000 131.673
62.84000 140.476
63.01000 142.570
63.18000 149.937
63.35000 143.672
63.52000 135.898
63.69000 156.519
63.86000 152.528
64.03000 155.359
64.20000 153.269
64.37000 152.713
64.54000 165.737
64.71000 180.101
64.88000 158.267
65.05000 184.030
65.22000 212.770
65.39000 252.052
65.56000 316.260
65.73000 610.430
65.90000 1033.609
66.07000 373.926
66.24000 308.028
66.41000 408.008
66.58000 334.719
66.75000 299.547
66.92000 314.105
67.09000 349.071
67.26000 361.651
67.43000 387.507
67.60000 414.505
67.77000 444.682
67.94000 482.163
68.11000 529.602
68.28000 578.565
68.45000 672.789
68.62000 947.409
68.79000 1727.438
68.96000 10985.656
69.13000 51261.863
69.30000 30079.104
69.47000 7244.658
69.64000 1146.026
69.81000 755.205
69.98000 646.360
70.00000 632.593

File: BTO_Mapping_Theta2Theta_24-09-2025_001_11_13-383_14-863.xy
20.00000 572.341
20.17000 547.486
20.34000 553.073
20.51000 566.233
20.68000 555.539
20.85000 561.175
21.02000 532.185
21.19000 535.692
21.36000 555.595
21.53000 557.862
21.70000 527.407
21.87000 549.995
22.04000 611.257
22.21000 605.450
22.38000 579.670
22.55000 548.090
22.72000 519.915
22.89000 505.620
23.06000 526.194
23.23000 496.952
23.40000 503.524
23.57000 499.395
23.74000 498.920
23.91000 498.056
24.08000 501.587
24.25000 480.292
24.42000 481.722
24.59000 476.183
24.76000 452.355
24.93000 443.693
25.10000 472.292
25.27000 474.290
25.44000 459.786
25.61000 465.360
25.78000 463.149
25.95000 449.484
26.12000 456.574
26.29000 465.688
26.46000 459.181
26.63000 443.425
26.80000 456.264
26.97000 440.478
27.14000 454.963
27.31000 448.498
27.48000 434.786
27.65000 423.166
27.82000 435.046
27.99000 447.181
28.16000 431.727
28.33000 431.593
28.50000 429.531
28.67000 422.980
28.84000 402.563
29.01000 417.189
29.18000 407.072
29.35000 405.537
29.52000 421.505
29.69000 413.934
29.86000 411.192
30.03000 422.483
30.20000 417.351
30.37000 414.485
30.54000 420.394
30.71000 421.272
30.88000 441.310
31.05000 522.569
31.22000 976.719
31.39000 1720.722
31.56000 1277.639
31.73000 620.110
31.90000 446.890
32.07000 412.952
32.24000 387.314
32.41000 377.358
32.58000 385.122
32.75000 361.424
32.92000 463.431
33.09000 407.202
33.26000 335.189
33.43000 339.850
33.60000 322.335
33.77000 345.431
33.94000 319.859
34.11000 336.717
34.28000 327.660
34.45000 326.645
34.62000 321.158
34.79000 323.207
34.96000 324.061
35.13000 313.001
35.30000 308.990
35.47000 300.808
35.64000 301.397
35.81000 303.852
35.98000 296.731
36.15000 298.862
36.32000 296.210
36.49000 306.706
36.66000 296.493
36.83000 301.186
37.00000 306.767
37.17000 302.909
37.34000 295.613
37.51000 303.928
37.68000 286.487
37.85000 297.677
38.02000 312.533
38.19000 308.948
38.36000 330.731
38.53000 637.012
38.70000 1427.643
38.87000 1174.169
39.04000 441.529
39.21000 298.023
39.38000 277.575
39.55000 272.386
39.72000 259.995
39.89000 278.891
40.06000 272.828
40.23000 255.586
40.40000 263.188
40.57000 254.555
40.74000 255.148
40.91000 254.781
41.08000 253.495
41.25000 245.143
41.42000 238.976
41.59000 235.899
41.76000 236.400
41.93000 233.458
42.10000 235.291
42.27000 242.827
42.44000 236.705
42.61000 234.010
42.78000 227.306
42.95000 224.370
43.12000 221.267
43.29000 230.094
43.46000 231.893
43.63000 225.675
43.80000 219.335
43.97000 214.482
44.14000 214.644
44.31000 232.291
44.48000 216.914
44.65000 230.415
44.82000 236.654
44.99000 244.025
45.16000 255.292
45.33000 263.912
45.50000 250.283
45.67000 241.713
45.84000 216.614
46.01000 212.260
46.18000 198.411
46.35000 201.972
46.52000 201.149
46.69000 200.363
46.86000 188.201
47.03000 194.032
47.20000 192.755
47.37000 189.835
47.54000 198.463
47.71000 188.512
47.88000 175.434
48.05000 183.893
48.22000 183.582
48.39000 169.763
48.56000 177.895
48.73000 172.205
48.90000 180.499
49.07000 181.398
49.24000 177.424
49.41000 177.849
49.58000 169.431
49.75000 187.045
49.92000 172.045
50.09000 162.252
50.26000 172.860
50.43000 181.579
50.60000 195.269
50.77000 186.145
50.94000 189.141
51.11000 180.098
51.28000 176.666
51.45000 169.513
51.62000 162.077
51.79000 166.323
51.96000 161.717
52.13000 168.357
52.30000 157.977
52.47000 161.367
52.64000 152.847
52.81000 161.071
52.98000 162.067
53.15000 155.722
53.32000 151.323
53.49000 176.257
53.66000 159.457
53.83000 151.536
54.00000 150.763
54.17000 152.300
54.34000 150.733
54.51000 154.172
54.68000 160.665
54.85000 167.658
55.02000 162.474
55.19000 168.468
55.36000 172.167
55.53000 206.567
55.70000 346.197
55.87000 713.659
56.04000 862.916
56.21000 601.936
56.38000 288.488
56.55000 199.798
56.72000 162.539
56.89000 144.088
57.06000 150.466
57.23000 149.410
57.40000 156.863
57.57000 142.764
57.74000 138.927
57.91000 139.924
58.08000 139.662
58.25000 148.037
58.42000 141.642
58.59000 141.975
58.76000 136.725
58.93000 135.578
59.10000 130.557
59.27000 124.680
59.44000 131.747
59.61000 124.894
59.78000 137.612
59.95000 141.282
60.12000 138.235
60.29000 131.238
60.46000 143.558
60.63000 122.368
60.80000 123.748
60.97000 128.824
61.14000 123.804
61.31000 141.385
61.48000 152.703
61.65000 248.927
61.82000 183.565
61.99000 144.784
62.16000 139.854
62.33000 143.026
62.50000 136.684
62.67000 145.510
62.84000 141.701
63.01000 136.263
63.18000 140.821
63.35000 144.500
63.52000 145.082
63.69000 150.018
63.86000 149.082
64.03000 147.897
64.20000 157.546
64.37000 156.955
64.54000 158.459
64.71000 178.732
64.88000 173.244
65.05000 193.073
65.22000 213.185
65.39000 239.042
65.56000 299.180
65.73000 566.149
65.90000 1011.756
66.07000 407.181
66.24000 311.030
66.41000 418.499
66.58000 334.754
66.75000 301.337
66.92000 315.892
67.09000 335.936
67.26000 357.558
67.43000 390.026
67.60000 416.044
67.77000 444.592
67.94000 473.964
68.11000 523.456
68.28000 581.128
68.45000 672.292
68.62000 928.859
68.79000 1717.352
68.96000 10082.977
69.13000 49915.727
69.30000 29925.156
69.47000 7497.369
69.64000 1165.541
69.81000 758.604
69.98000 645.342
70.00000 649.500