Folder: Master-Thesis/XRD/24-09-2025 Dep 3/XY Data (part 5)

File: BTO_Mapping_Theta2Theta_24-09-2025_001_41_-32-361_-23-511.xy
20.00000 552.625
20.17000 540.383
20.34000 551.593
20.51000 552.072
20.68000 564.256
20.85000 551.214
21.02000 562.870
21.19000 548.796
21.36000 548.325
21.53000 563.981
21.70000 633.015
21.87000 862.180
22.04000 986.462
22.21000 663.880
22.38000 558.077
22.55000 536.671
22.72000 529.921
22.89000 523.891
23.06000 516.148
23.23000 500.972
23.40000 498.609
23.57000 494.456
23.74000 503.477
23.91000 490.345
24.08000 500.296
24.25000 496.823
24.42000 494.134
24.59000 494.872
24.76000 486.690
24.93000 502.529
25.10000 476.220
25.27000 475.384
25.44000 463.176
25.61000 469.172
25.78000 460.949
25.95000 459.499
26.12000 471.183
26.29000 462.200
26.46000 440.927
26.63000 448.388
26.80000 448.895
26.97000 453.190
27.14000 438.325
27.31000 429.340
27.48000 431.996
27.65000 431.490
27.82000 432.392
27.99000 429.654
28.16000 438.892
28.33000 448.022
28.50000 434.335
28.67000 429.394
28.84000 416.011
29.01000 432.354
29.18000 429.177
29.35000 424.263
29.52000 416.430
29.69000 442.760
29.86000 466.993
30.03000 467.941
30.20000 443.908
30.37000 452.535
30.54000 459.387
30.71000 473.430
30.88000 561.945
31.05000 1092.173
31.22000 3392.507
31.39000 4167.091
31.56000 1582.098
31.73000 622.716
31.90000 450.273
32.07000 436.454
32.24000 403.958
32.41000 390.487
32.58000 371.965
32.75000 392.293
32.92000 641.607
33.09000 482.989
33.26000 348.701
33.43000 353.386
33.60000 369.922
33.77000 340.272
33.94000 352.142
34.11000 340.297
34.28000 337.821
34.45000 344.426
34.62000 321.657
34.79000 339.303
34.96000 333.329
35.13000 314.266
35.30000 314.633
35.47000 309.116
35.64000 318.884
35.81000 306.535
35.98000 314.317
36.15000 320.747
36.32000 319.184
36.49000 299.148
36.66000 297.479
36.83000 304.490
37.00000 305.498
37.17000 295.176
37.34000 294.644
37.51000 304.257
37.68000 309.099
37.85000 287.135
38.02000 305.831
38.19000 319.536
38.36000 426.463
38.53000 725.018
38.70000 806.141
38.87000 476.045
39.04000 307.598
39.21000 287.850
39.38000 267.677
39.55000 255.424
39.72000 267.384
39.89000 265.680
40.06000 266.419
40.23000 278.609
40.40000 264.792
40.57000 246.510
40.74000 244.604
40.91000 246.165
41.08000 248.966
41.25000 247.856
41.42000 254.472
41.59000 258.165
41.76000 224.156
41.93000 249.151
42.10000 226.212
42.27000 235.482
42.44000 235.550
42.61000 240.473
42.78000 229.851
42.95000 238.181
43.12000 245.140
43.29000 225.722
43.46000 229.809
43.63000 223.530
43.80000 213.849
43.97000 229.560
44.14000 230.371
44.31000 245.062
44.48000 265.818
44.65000 349.270
44.82000 540.631
44.99000 578.721
45.16000 403.701
45.33000 305.748
45.50000 264.756
45.67000 235.284
45.84000 228.754
46.01000 218.594
46.18000 212.587
46.35000 199.582
46.52000 193.300
46.69000 205.302
46.86000 191.120
47.03000 197.623
47.20000 191.911
47.37000 186.053
47.54000 195.246
47.71000 186.545
47.88000 186.727
48.05000 181.201
48.22000 186.583
48.39000 180.164
48.56000 182.916
48.73000 192.290
48.90000 189.776
49.07000 189.553
49.24000 181.367
49.41000 168.144
49.58000 181.285
49.75000 180.611
49.92000 183.093
50.09000 193.532
50.26000 205.023
50.43000 264.283
50.60000 317.688
50.77000 260.318
50.94000 208.260
51.11000 193.437
51.28000 183.522
51.45000 176.434
51.62000 159.437
51.79000 165.059
51.96000 171.897
52.13000 163.160
52.30000 165.547
52.47000 163.718
52.64000 155.765
52.81000 167.141
52.98000 161.712
53.15000 168.564
53.32000 160.386
53.49000 167.827
53.66000 177.582
53.83000 152.610
54.00000 151.099
54.17000 165.997
54.34000 158.379
54.51000 154.497
54.68000 159.976
54.85000 159.281
55.02000 176.097
55.19000 172.797
55.36000 207.487
55.53000 351.533
55.70000 695.321
55.87000 880.790
56.04000 590.928
56.21000 311.609
56.38000 198.653
56.55000 172.451
56.72000 156.883
56.89000 151.285
57.06000 154.883
57.23000 150.616
57.40000 147.029
57.57000 139.767
57.74000 144.939
57.91000 127.915
58.08000 138.492
58.25000 139.292
58.42000 145.490
58.59000 140.726
58.76000 131.710
58.93000 139.151
59.10000 133.968
59.27000 143.188
59.44000 120.171
59.61000 138.404
59.78000 131.267
59.95000 138.527
60.12000 128.211
60.29000 137.671
60.46000 132.063
60.63000 125.828
60.80000 137.376
60.97000 135.941
61.14000 141.274
61.31000 133.855
61.48000 156.481
61.65000 397.943
61.82000 255.648
61.99000 147.888
62.16000 138.797
62.33000 147.811
62.50000 135.634
62.67000 142.641
62.84000 152.123
63.01000 136.288
63.18000 152.691
63.35000 146.174
63.52000 143.790
63.69000 154.937
63.86000 156.859
64.03000 160.422
64.20000 162.980
64.37000 172.919
64.54000 173.534
64.71000 178.327
64.88000 205.835
65.05000 241.825
65.22000 339.731
65.39000 470.849
65.56000 475.395
65.73000 1027.024
65.90000 1863.766
66.07000 522.024
66.24000 381.560
66.41000 671.236
66.58000 434.614
66.75000 374.260
66.92000 393.904
67.09000 431.297
67.26000 466.896
67.43000 486.650
67.60000 516.768
67.77000 594.205
67.94000 625.606
68.11000 722.295
68.28000 792.750
68.45000 921.031
68.62000 1413.844
68.79000 2868.307
68.96000 23796.320
69.13000 100194.250
69.30000 57735.434
69.47000 12958.594
69.64000 1645.861
69.81000 1069.902
69.98000 819.216
70.00000 803.400

File: BTO_Mapping_Theta2Theta_24-09-2025_001_42_-5-000_-8-660.xy
20.00000 573.678
20.17000 538.096
20.34000 556.276
20.51000 550.756
20.68000 538.513
20.85000 549.613
21.02000 536.249
21.19000 558.095
21.36000 546.239
21.53000 568.390
21.70000 569.645
21.87000 622.060
22.04000 723.261
22.21000 664.098
22.38000 577.794
22.55000 546.894
22.72000 518.320
22.89000 539.835
23.06000 505.917
23.23000 509.793
23.40000 519.556
23.57000 499.469
23.74000 494.709
23.91000 493.383
24.08000 491.578
24.25000 501.391
24.42000 461.628
24.59000 488.076
24.76000 490.315
24.93000 489.202
25.10000 490.924
25.27000 491.134
25.44000 461.342
25.61000 464.952
25.78000 457.316
25.95000 456.034
26.12000 452.957
26.29000 450.616
26.46000 440.931
26.63000 449.883
26.80000 450.175
26.97000 432.179
27.14000 447.307
27.31000 432.832
27.48000 442.715
27.65000 439.266
27.82000 425.191
27.99000 438.878
28.16000 450.067
28.33000 444.836
28.50000 432.111
28.67000 424.697
28.84000 422.665
29.01000 417.502
29.18000 419.473
29.35000 414.874
29.52000 404.327
29.69000 428.319
29.86000 453.357
30.03000 450.251
30.20000 439.111
30.37000 433.647
30.54000 446.559
30.71000 453.286
30.88000 490.116
31.05000 740.591
31.22000 2003.587
31.39000 3504.261
31.56000 2013.008
31.73000 727.603
31.90000 481.114
32.07000 437.320
32.24000 419.646
32.41000 394.367
32.58000 388.242
32.75000 383.527
32.92000 458.444
33.09000 390.014
33.26000 346.198
33.43000 346.111
33.60000 343.872
33.77000 333.843
33.94000 337.938
34.11000 330.931
34.28000 330.762
34.45000 340.624
34.62000 329.421
34.79000 343.327
34.96000 318.313
35.13000 322.519
35.30000 297.149
35.47000 323.911
35.64000 317.524
35.81000 311.118
35.98000 310.125
36.15000 294.431
36.32000 288.826
36.49000 289.271
36.66000 303.030
36.83000 304.285
37.00000 313.073
37.17000 292.882
37.34000 301.525
37.51000 308.226
37.68000 298.249
37.85000 286.788
38.02000 297.298
38.19000 328.982
38.36000 402.081
38.53000 807.320
38.70000 1490.372
38.87000 947.577
39.04000 396.293
39.21000 312.568
39.38000 284.464
39.55000 271.160
39.72000 288.850
39.89000 266.422
40.06000 264.888
40.23000 258.292
40.40000 255.770
40.57000 254.129
40.74000 257.271
40.91000 255.255
41.08000 247.235
41.25000 240.863
41.42000 253.439
41.59000 237.374
41.76000 232.396
41.93000 240.478
42.10000 236.489
42.27000 231.550
42.44000 221.520
42.61000 238.456
42.78000 229.981
42.95000 222.533
43.12000 207.313
43.29000 238.938
43.46000 219.288
43.63000 212.378
43.80000 218.505
43.97000 219.204
44.14000 221.767
44.31000 225.260
44.48000 226.184
44.65000 228.348
44.82000 275.201
44.99000 351.345
45.16000 361.008
45.33000 293.300
45.50000 260.388
45.67000 254.423
45.84000 233.360
46.01000 218.478
46.18000 218.183
46.35000 216.149
46.52000 199.384
46.69000 211.757
46.86000 204.797
47.03000 189.958
47.20000 193.124
47.37000 192.301
47.54000 179.946
47.71000 175.474
47.88000 183.773
48.05000 188.764
48.22000 189.561
48.39000 178.146
48.56000 183.289
48.73000 176.235
48.90000 178.746
49.07000 181.816
49.24000 189.055
49.41000 167.080
49.58000 163.926
49.75000 182.965
49.92000 190.805
50.09000 176.544
50.26000 180.057
50.43000 201.840
50.60000 254.569
50.77000 250.680
50.94000 209.637
51.11000 182.664
51.28000 189.138
51.45000 173.595
51.62000 175.133
51.79000 176.543
51.96000 164.316
52.13000 155.722
52.30000 157.278
52.47000 155.009
52.64000 163.958
52.81000 153.792
52.98000 159.117
53.15000 165.406
53.32000 166.866
53.49000 164.315
53.66000 162.445
53.83000 159.295
54.00000 152.826
54.17000 159.261
54.34000 165.471
54.51000 163.591
54.68000 164.456
54.85000 160.562
55.02000 163.475
55.19000 164.030
55.36000 183.099
55.53000 236.505
55.70000 408.831
55.87000 800.833
56.04000 746.482
56.21000 412.169
56.38000 233.244
56.55000 181.953
56.72000 170.411
56.89000 146.772
57.06000 150.317
57.23000 146.211
57.40000 142.406
57.57000 140.771
57.74000 136.349
57.91000 143.514
58.08000 144.347
58.25000 142.446
58.42000 140.754
58.59000 132.394
58.76000 145.157
58.93000 138.738
59.10000 127.830
59.27000 132.698
59.44000 128.601
59.61000 134.523
59.78000 140.693
59.95000 137.474
60.12000 123.773
60.29000 131.789
60.46000 135.996
60.63000 133.442
60.80000 127.665
60.97000 134.527
61.14000 129.354
61.31000 128.278
61.48000 135.085
61.65000 270.940
61.82000 199.944
61.99000 142.458
62.16000 141.194
62.33000 144.462
62.50000 142.380
62.67000 127.618
62.84000 134.238
63.01000 150.219
63.18000 143.511
63.35000 144.207
63.52000 153.467
63.69000 150.093
63.86000 152.590
64.03000 150.308
64.20000 160.142
64.37000 154.118
64.54000 159.987
64.71000 170.031
64.88000 171.486
65.05000 195.799
65.22000 254.496
65.39000 329.064
65.56000 420.589
65.73000 766.124
65.90000 1184.789
66.07000 396.658
66.24000 314.267
66.41000 460.388
66.58000 354.797
66.75000 315.409
66.92000 315.611
67.09000 352.061
67.26000 363.051
67.43000 395.826
67.60000 413.502
67.77000 462.271
67.94000 507.199
68.11000 569.234
68.28000 620.638
68.45000 710.679
68.62000 1044.293
68.79000 1986.040
68.96000 13773.424
69.13000 58942.074
69.30000 33992.613
69.47000 7877.059
69.64000 1198.271
69.81000 814.521
69.98000 658.799
70.00000 655.782

File: BTO_Mapping_Theta2Theta_24-09-2025_001_43_-10-000_-17-321.xy
20.00000 581.157
20.17000 564.119
20.34000 556.802
20.51000 543.264
20.68000 579.968
20.85000 550.071
21.02000 545.716
21.19000 557.184
21.36000 534.517
21.53000 559.297
21.70000 563.826
21.87000 640.249
22.04000 761.030
22.21000 656.469
22.38000 585.381
22.55000 537.900
22.72000 520.083
22.89000 510.340
23.06000 515.066
23.23000 493.786
23.40000 516.029
23.57000 517.922
23.74000 510.156
23.91000 492.462
24.08000 493.091
24.25000 490.547
24.42000 476.661
24.59000 478.048
24.76000 475.048
24.93000 478.049
25.10000 481.125
25.27000 455.549
25.44000 463.688
25.61000 485.112
25.78000 473.740
25.95000 478.902
26.12000 467.143
26.29000 452.226
26.46000 461.528
26.63000 455.264
26.80000 439.331
26.97000 457.972
27.14000 452.345
27.31000 433.101
27.48000 439.516
27.65000 429.399
27.82000 426.092
27.99000 431.956
28.16000 433.440
28.33000 434.909
28.50000 426.702
28.67000 423.817
28.84000 410.404
29.01000 401.734
29.18000 424.942
29.35000 430.747
29.52000 407.009
29.69000 403.492
29.86000 429.494
30.03000 466.561
30.20000 464.726
30.37000 421.616
30.54000 434.684
30.71000 469.045
30.88000 492.863
31.05000 770.512
31.22000 2114.679
31.39000 3705.196
31.56000 1996.067
31.73000 735.438
31.90000 453.046
32.07000 412.993
32.24000 411.454
32.41000 394.030
32.58000 379.053
32.75000 368.314
32.92000 523.543
33.09000 418.031
33.26000 361.117
33.43000 349.180
33.60000 338.551
33.77000 337.870
33.94000 328.911
34.11000 329.504
34.28000 328.492
34.45000 327.954
34.62000 332.328
34.79000 310.306
34.96000 313.357
35.13000 319.541
35.30000 315.781
35.47000 316.706
35.64000 312.743
35.81000 304.180
35.98000 314.495
36.15000 307.151
36.32000 267.891
36.49000 318.999
36.66000 299.087
36.83000 288.540
37.00000 318.080
37.17000 299.831
37.34000 311.181
37.51000 303.159
37.68000 296.223
37.85000 288.251
38.02000 292.542
38.19000 308.508
38.36000 410.962
38.53000 847.318
38.70000 1424.658
38.87000 874.222
39.04000 392.676
39.21000 299.376
39.38000 281.249
39.55000 271.777
39.72000 266.046
39.89000 260.189
40.06000 247.650
40.23000 259.914
40.40000 271.121
40.57000 255.787
40.74000 251.549
40.91000 245.142
41.08000 258.008
41.25000 243.516
41.42000 257.074
41.59000 229.515
41.76000 234.515
41.93000 241.845
42.10000 231.014
42.27000 234.562
42.44000 228.678
42.61000 246.823
42.78000 233.797
42.95000 229.167
43.12000 239.835
43.29000 238.618
43.46000 233.190
43.63000 233.628
43.80000 231.730
43.97000 222.092
44.14000 214.550
44.31000 232.208
44.48000 226.642
44.65000 234.273
44.82000 298.008
44.99000 389.362
45.16000 386.222
45.33000 298.562
45.50000 267.088
45.67000 252.481
45.84000 237.646
46.01000 219.684
46.18000 197.149
46.35000 197.277
46.52000 207.669
46.69000 199.328
46.86000 193.062
47.03000 204.094
47.20000 186.041
47.37000 190.929
47.54000 193.705
47.71000 186.416
47.88000 187.392
48.05000 189.613
48.22000 183.307
48.39000 182.155
48.56000 172.840
48.73000 180.805
48.90000 179.087
49.07000 175.675
49.24000 182.726
49.41000 178.074
49.58000 181.741
49.75000 169.413
49.92000 187.745
50.09000 181.300
50.26000 171.825
50.43000 201.690
50.60000 270.651
50.77000 271.894
50.94000 217.115
51.11000 185.864
51.28000 166.474
51.45000 172.578
51.62000 163.173
51.79000 159.903
51.96000 163.896
52.13000 155.710
52.30000 163.974
52.47000 169.743
52.64000 165.265
52.81000 157.213
52.98000 162.871
53.15000 160.674
53.32000 166.149
53.49000 168.872
53.66000 158.231
53.83000 156.802
54.00000 158.851
54.17000 153.431
54.34000 159.999
54.51000 167.242
54.68000 156.172
54.85000 149.464
55.02000 156.925
55.19000 170.087
55.36000 189.462
55.53000 234.413
55.70000 450.307
55.87000 769.666
56.04000 739.000
56.21000 394.240
56.38000 231.993
56.55000 199.906
56.72000 168.340
56.89000 162.200
57.06000 148.460
57.23000 151.686
57.40000 155.789
57.57000 139.443
57.74000 145.556
57.91000 144.679
58.08000 139.308
58.25000 158.571
58.42000 131.607
58.59000 133.306
58.76000 142.603
58.93000 143.882
59.10000 136.037
59.27000 130.449
59.44000 120.667
59.61000 135.375
59.78000 134.445
59.95000 133.788
60.12000 136.243
60.29000 125.877
60.46000 129.009
60.63000 127.523
60.80000 127.354
60.97000 125.206
61.14000 135.183
61.31000 136.598
61.48000 142.327
61.65000 281.217
61.82000 211.647
61.99000 148.137
62.16000 135.625
62.33000 128.403
62.50000 138.397
62.67000 144.333
62.84000 139.161
63.01000 141.772
63.18000 150.361
63.35000 143.729
63.52000 141.701
63.69000 151.427
63.86000 156.779
64.03000 160.068
64.20000 146.675
64.37000 156.082
64.54000 179.552
64.71000 170.655
64.88000 180.492
65.05000 209.112
65.22000 254.930
65.39000 331.261
65.56000 431.540
65.73000 771.393
65.90000 1235.831
66.07000 414.294
66.24000 331.739
66.41000 453.628
66.58000 361.104
66.75000 326.912
66.92000 342.243
67.09000 359.059
67.26000 382.017
67.43000 417.333
67.60000 437.141
67.77000 460.128
67.94000 517.879
68.11000 554.710
68.28000 613.558
68.45000 745.652
68.62000 1078.534
68.79000 2077.867
68.96000 15224.522
69.13000 62570.094
69.30000 36051.871
69.47000 8074.024
69.64000 1227.858
69.81000 828.148
69.98000 682.989
70.00000 671.411

File: BTO_Mapping_Theta2Theta_24-09-2025_001_49_-4-181_-39-781.xy
20.00000 575.078
20.17000 556.495
20.34000 561.207
20.51000 553.422
20.68000 533.121
20.85000 554.813
21.02000 544.469
21.19000 542.831
21.36000 532.854
21.53000 551.792
21.70000 550.448
21.87000 583.401
22.04000 626.784
22.21000 632.486
22.38000 583.508
22.55000 549.023
22.72000 521.144
22.89000 516.178
23.06000 519.638
23.23000 526.219
23.40000 489.671
23.57000 487.976
23.74000 495.553
23.91000 482.256
24.08000 492.243
24.25000 466.369
24.42000 487.743
24.59000 471.257
24.76000 481.225
24.93000 467.925
25.10000 464.722
25.27000 455.266
25.44000 455.171
25.61000 463.137
25.78000 456.808
25.95000 451.389
26.12000 471.371
26.29000 443.024
26.46000 452.848
26.63000 459.298
26.80000 434.681
26.97000 427.022
27.14000 441.055
27.31000 451.225
27.48000 439.522
27.65000 434.692
27.82000 424.230
27.99000 420.294
28.16000 417.621
28.33000 442.590
28.50000 402.417
28.67000 413.790
28.84000 411.619
29.01000 395.554
29.18000 417.534
29.35000 418.525
29.52000 402.917
29.69000 401.995
29.86000 422.877
30.03000 445.355
30.20000 448.444
30.37000 408.155
30.54000 407.260
30.71000 415.602
30.88000 466.373
31.05000 605.755
31.22000 1356.408
31.39000 2248.539
31.56000 1436.001
31.73000 652.827
31.90000 473.818
32.07000 417.498
32.24000 397.535
32.41000 382.410
32.58000 393.336
32.75000 364.932
32.92000 476.044
33.09000 400.251
33.26000 345.872
33.43000 334.710
33.60000 359.607
33.77000 340.010
33.94000 334.483
34.11000 331.406
34.28000 335.632
34.45000 335.545
34.62000 327.929
34.79000 297.796
34.96000 329.939
35.13000 321.629
35.30000 312.175
35.47000 306.624
35.64000 311.895
35.81000 309.863
35.98000 307.750
36.15000 303.318
36.32000 305.102
36.49000 296.305
36.66000 302.731
36.83000 310.960
37.00000 303.354
37.17000 300.610
37.34000 294.493
37.51000 284.769
37.68000 291.563
37.85000 300.118
38.02000 307.445
38.19000 311.911
38.36000 376.916
38.53000 801.076
38.70000 1732.645
38.87000 1241.755
39.04000 448.428
39.21000 312.326
39.38000 281.919
39.55000 286.382
39.72000 269.022
39.89000 276.410
40.06000 265.634
40.23000 268.761
40.40000 263.348
40.57000 254.082
40.74000 247.452
40.91000 245.867
41.08000 246.676
41.25000 231.884
41.42000 253.433
41.59000 238.536
41.76000 246.124
41.93000 239.831
42.10000 238.054
42.27000 227.148
42.44000 234.392
42.61000 226.227
42.78000 232.311
42.95000 239.009
43.12000 215.458
43.29000 237.903
43.46000 224.724
43.63000 218.610
43.80000 220.882
43.97000 221.736
44.14000 221.404
44.31000 228.114
44.48000 222.992
44.65000 225.956
44.82000 254.811
44.99000 302.039
45.16000 311.812
45.33000 286.733
45.50000 257.084
45.67000 237.446
45.84000 223.138
46.01000 213.290
46.18000 212.569
46.35000 207.833
46.52000 204.944
46.69000 206.403
46.86000 189.453
47.03000 183.056
47.20000 173.357
47.37000 200.298
47.54000 200.846
47.71000 209.360
47.88000 195.179
48.05000 189.954
48.22000 184.213
48.39000 178.924
48.56000 173.451
48.73000 180.210
48.90000 178.253
49.07000 181.717
49.24000 168.286
49.41000 172.778
49.58000 173.156
49.75000 174.331
49.92000 188.921
50.09000 171.101
50.26000 170.350
50.43000 188.159
50.60000 224.738
50.77000 226.292
50.94000 206.876
51.11000 188.358
51.28000 165.250
51.45000 171.241
51.62000 173.416
51.79000 159.759
51.96000 171.019
52.13000 176.757
52.30000 158.427
52.47000 163.375
52.64000 158.613
52.81000 159.795
52.98000 159.679
53.15000 166.145
53.32000 168.724
53.49000 166.178
53.66000 159.359
53.83000 157.199
54.00000 159.424
54.17000 155.792
54.34000 160.697
54.51000 161.644
54.68000 163.089
54.85000 166.884
55.02000 164.753
55.19000 176.171
55.36000 179.399
55.53000 223.234
55.70000 416.345
55.87000 836.133
56.04000 931.467
56.21000 561.119
56.38000 260.392
56.55000 192.408
56.72000 176.866
56.89000 156.510
57.06000 156.476
57.23000 155.183
57.40000 143.534
57.57000 149.839
57.74000 142.059
57.91000 137.348
58.08000 132.449
58.25000 147.676
58.42000 134.315
58.59000 135.916
58.76000 137.163
58.93000 136.420
59.10000 134.614
59.27000 130.859
59.44000 141.729
59.61000 124.190
59.78000 122.631
59.95000 138.413
60.12000 132.265
60.29000 131.134
60.46000 136.410
60.63000 132.189
60.80000 136.349
60.97000 134.292
61.14000 133.298
61.31000 127.128
61.48000 140.255
61.65000 266.409
61.82000 190.216
61.99000 140.073
62.16000 136.835
62.33000 140.861
62.50000 139.333
62.67000 142.773
62.84000 135.805
63.01000 128.861
63.18000 138.457
63.35000 151.707
63.52000 142.893
63.69000 149.032
63.86000 150.354
64.03000 150.385
64.20000 155.029
64.37000 166.623
64.54000 168.597
64.71000 183.316
64.88000 174.758
65.05000 200.204
65.22000 224.846
65.39000 275.182
65.56000 338.764
65.73000 640.510
65.90000 1097.586
66.07000 387.869
66.24000 304.703
66.41000 422.623
66.58000 342.502
66.75000 319.832
66.92000 326.704
67.09000 343.126
67.26000 364.276
67.43000 384.910
67.60000 412.487
67.77000 435.582
67.94000 469.262
68.11000 516.589
68.28000 575.116
68.45000 702.640
68.62000 984.739
68.79000 1844.476
68.96000 12434.746
69.13000 53918.605
69.30000 31187.309
69.47000 7158.252
69.64000 1159.651
69.81000 766.894
69.98000 629.244
70.00000 635.703

File: BTO_Mapping_Theta2Theta_24-09-2025_001_54_6-691_-7-431.xy
20.00000 590.397
20.17000 569.932
20.34000 543.221
20.51000 551.723
20.68000 558.373
20.85000 557.580
21.02000 532.731
21.19000 557.483
21.36000 533.306
21.53000 552.243
21.70000 555.325
21.87000 565.538
22.04000 630.469
22.21000 631.909
22.38000 596.423
22.55000 551.887
22.72000 508.598
22.89000 511.396
23.06000 515.885
23.23000 533.065
23.40000 521.778
23.57000 485.286
23.74000 493.380
23.91000 501.902
24.08000 502.113
24.25000 472.960
24.42000 492.589
24.59000 489.843
24.76000 490.031
24.93000 467.842
25.10000 475.456
25.27000 469.920
25.44000 484.039
25.61000 477.815
25.78000 471.961
25.95000 466.120
26.12000 437.061
26.29000 450.377
26.46000 443.130
26.63000 475.849
26.80000 434.375
26.97000 451.768
27.14000 428.940
27.31000 426.913
27.48000 442.116
27.65000 418.590
27.82000 421.873
27.99000 427.529
28.16000 434.434
28.33000 432.482
28.50000 430.346
28.67000 427.730
28.84000 412.788
29.01000 402.731
29.18000 408.612
29.35000 414.185
29.52000 410.714
29.69000 417.759
29.86000 425.768
30.03000 446.311
30.20000 404.710
30.37000 418.151
30.54000 413.572
30.71000 437.538
30.88000 450.216
31.05000 605.618
31.22000 1307.429
31.39000 2278.461
31.56000 1449.554
31.73000 654.980
31.90000 454.191
32.07000 416.505
32.24000 396.272
32.41000 381.984
32.58000 383.179
32.75000 368.399
32.92000 441.661
33.09000 375.352
33.26000 363.280
33.43000 316.011
33.60000 324.694
33.77000 336.091
33.94000 330.839
34.11000 320.413
34.28000 322.439
34.45000 334.186
34.62000 320.019
34.79000 323.660
34.96000 314.397
35.13000 330.223
35.30000 301.766
35.47000 313.124
35.64000 307.045
35.81000 310.977
35.98000 306.585
36.15000 311.467
36.32000 296.992
36.49000 315.062
36.66000 295.148
36.83000 303.521
37.00000 311.788
37.17000 316.962
37.34000 299.093
37.51000 301.131
37.68000 307.982
37.85000 295.462
38.02000 305.545
38.19000 311.915
38.36000 361.218
38.53000 746.062
38.70000 1552.280
38.87000 1104.880
39.04000 442.015
39.21000 302.195
39.38000 284.942
39.55000 285.202
39.72000 269.242
39.89000 281.743
40.06000 275.041
40.23000 257.518
40.40000 264.728
40.57000 241.193
40.74000 244.893
40.91000 246.538
41.08000 256.681
41.25000 254.564
41.42000 244.535
41.59000 236.936
41.76000 243.232
41.93000 229.306
42.10000 234.063
42.27000 226.839
42.44000 231.474
42.61000 227.966
42.78000 218.577
42.95000 218.255
43.12000 232.075
43.29000 220.879
43.46000 218.567
43.63000 221.581
43.80000 220.207
43.97000 223.131
44.14000 219.245
44.31000 212.749
44.48000 223.657
44.65000 213.643
44.82000 214.227
44.99000 276.672
45.16000 287.961
45.33000 261.252
45.50000 262.768
45.67000 237.923
45.84000 229.636
46.01000 213.656
46.18000 214.023
46.35000 201.131
46.52000 205.621
46.69000 209.227
46.86000 209.282
47.03000 195.082
47.20000 180.210
47.37000 193.156
47.54000 190.348
47.71000 186.493
47.88000 186.148
48.05000 192.256
48.22000 173.367
48.39000 188.914
48.56000 176.085
48.73000 184.000
48.90000 179.910
49.07000 183.192
49.24000 182.615
49.41000 168.124
49.58000 172.389
49.75000 185.122
49.92000 162.214
50.09000 180.821
50.26000 169.475
50.43000 176.749
50.60000 205.557
50.77000 212.136
50.94000 195.955
51.11000 180.808
51.28000 181.189
51.45000 166.574
51.62000 163.483
51.79000 161.326
51.96000 158.590
52.13000 158.383
52.30000 164.772
52.47000 167.695
52.64000 158.489
52.81000 161.106
52.98000 155.565
53.15000 167.423
53.32000 162.913
53.49000 159.656
53.66000 164.907
53.83000 156.170
54.00000 152.116
54.17000 165.241
54.34000 171.897
54.51000 151.169
54.68000 161.294
54.85000 157.803
55.02000 161.279
55.19000 165.963
55.36000 174.127
55.53000 220.674
55.70000 386.069
55.87000 780.311
56.04000 892.504
56.21000 530.921
56.38000 274.147
56.55000 203.456
56.72000 171.569
56.89000 163.863
57.06000 154.772
57.23000 149.360
57.40000 147.174
57.57000 157.246
57.74000 142.358
57.91000 140.694
58.08000 141.031
58.25000 131.564
58.42000 132.045
58.59000 134.909
58.76000 130.014
58.93000 142.808
59.10000 138.795
59.27000 128.905
59.44000 134.926
59.61000 126.869
59.78000 133.340
59.95000 133.878
60.12000 132.904
60.29000 141.919
60.46000 131.025
60.63000 126.084
60.80000 136.904
60.97000 134.878
61.14000 134.475
61.31000 131.735
61.48000 152.066
61.65000 241.610
61.82000 195.478
61.99000 144.198
62.16000 136.940
62.33000 136.680
62.50000 149.564
62.67000 145.540
62.84000 146.629
63.01000 140.441
63.18000 132.956
63.35000 144.834
63.52000 147.125
63.69000 147.815
63.86000 155.343
64.03000 152.382
64.20000 147.734
64.37000 156.034
64.54000 167.760
64.71000 161.652
64.88000 173.366
65.05000 188.425
65.22000 217.053
65.39000 263.945
65.56000 333.350
65.73000 613.199
65.90000 1045.613
66.07000 390.374
66.24000 325.745
66.41000 420.382
66.58000 343.438
66.75000 306.992
66.92000 333.575
67.09000 343.153
67.26000 366.647
67.43000 392.385
67.60000 409.326
67.77000 453.806
67.94000 488.032
68.11000 533.039
68.28000 598.522
68.45000 662.694
68.62000 931.494
68.79000 1714.623
68.96000 11403.346
69.13000 51606.160
69.30000 30230.418
69.47000 7067.201
69.64000 1137.455
69.81000 755.810
69.98000 646.650
70.00000 635.427