Folder: Master-Thesis/XRD/24-09-2025 Dep 3/XY Data (part 6)

File: BTO_Mapping_Theta2Theta_24-09-2025_001_55_13-383_-14-863.xy
20.00000 558.117
20.17000 563.953
20.34000 567.733
20.51000 564.935
20.68000 552.743
20.85000 552.136
21.02000 539.056
21.19000 547.975
21.36000 547.253
21.53000 558.300
21.70000 556.998
21.87000 557.880
22.04000 599.109
22.21000 577.502
22.38000 568.512
22.55000 533.966
22.72000 528.003
22.89000 504.668
23.06000 513.782
23.23000 518.998
23.40000 497.096
23.57000 498.542
23.74000 504.856
23.91000 499.446
24.08000 513.777
24.25000 505.289
24.42000 489.035
24.59000 489.238
24.76000 499.384
24.93000 476.164
25.10000 474.861
25.27000 463.361
25.44000 471.817
25.61000 470.048
25.78000 467.946
25.95000 462.172
26.12000 460.447
26.29000 446.042
26.46000 458.238
26.63000 468.835
26.80000 448.797
26.97000 460.234
27.14000 444.374
27.31000 424.318
27.48000 435.852
27.65000 424.635
27.82000 435.963
27.99000 424.911
28.16000 421.943
28.33000 450.547
28.50000 427.253
28.67000 423.782
28.84000 418.996
29.01000 415.292
29.18000 426.151
29.35000 394.326
29.52000 402.337
29.69000 408.759
29.86000 408.941
30.03000 412.729
30.20000 410.633
30.37000 404.027
30.54000 427.018
30.71000 416.237
30.88000 441.496
31.05000 550.755
31.22000 1030.257
31.39000 1673.804
31.56000 1221.089
31.73000 591.556
31.90000 454.740
32.07000 400.422
32.24000 395.207
32.41000 396.118
32.58000 363.132
32.75000 369.903
32.92000 450.000
33.09000 391.294
33.26000 348.613
33.43000 348.698
33.60000 340.007
33.77000 339.165
33.94000 329.215
34.11000 330.864
34.28000 333.754
34.45000 327.979
34.62000 323.882
34.79000 303.746
34.96000 328.732
35.13000 312.391
35.30000 314.366
35.47000 303.792
35.64000 310.439
35.81000 304.635
35.98000 304.466
36.15000 294.869
36.32000 304.150
36.49000 291.638
36.66000 296.419
36.83000 298.020
37.00000 311.562
37.17000 308.555
37.34000 288.950
37.51000 306.593
37.68000 302.811
37.85000 298.040
38.02000 295.365
38.19000 310.811
38.36000 359.856
38.53000 687.628
38.70000 1522.891
38.87000 1159.538
39.04000 429.740
39.21000 308.004
39.38000 296.562
39.55000 274.435
39.72000 273.320
39.89000 254.488
40.06000 263.276
40.23000 267.257
40.40000 256.528
40.57000 254.962
40.74000 252.325
40.91000 247.210
41.08000 222.139
41.25000 262.347
41.42000 237.982
41.59000 244.361
41.76000 241.216
41.93000 234.138
42.10000 242.539
42.27000 231.352
42.44000 231.814
42.61000 230.953
42.78000 222.375
42.95000 245.057
43.12000 236.267
43.29000 239.137
43.46000 235.308
43.63000 221.681
43.80000 212.186
43.97000 210.143
44.14000 230.027
44.31000 223.732
44.48000 218.717
44.65000 226.488
44.82000 214.951
44.99000 261.069
45.16000 269.267
45.33000 250.803
45.50000 236.132
45.67000 220.067
45.84000 223.661
46.01000 219.326
46.18000 204.070
46.35000 200.773
46.52000 204.658
46.69000 200.701
46.86000 194.387
47.03000 192.586
47.20000 185.871
47.37000 183.274
47.54000 186.920
47.71000 191.734
47.88000 166.574
48.05000 174.324
48.22000 183.001
48.39000 190.317
48.56000 179.707
48.73000 176.702
48.90000 180.740
49.07000 187.699
49.24000 168.344
49.41000 170.147
49.58000 172.573
49.75000 179.220
49.92000 170.543
50.09000 169.106
50.26000 161.856
50.43000 183.016
50.60000 183.169
50.77000 182.228
50.94000 196.334
51.11000 177.475
51.28000 184.232
51.45000 169.646
51.62000 162.356
51.79000 151.269
51.96000 168.409
52.13000 155.150
52.30000 163.051
52.47000 164.442
52.64000 157.320
52.81000 166.684
52.98000 162.888
53.15000 164.650
53.32000 153.060
53.49000 171.961
53.66000 152.291
53.83000 158.717
54.00000 161.056
54.17000 154.782
54.34000 158.969
54.51000 159.789
54.68000 152.772
54.85000 149.571
55.02000 152.220
55.19000 163.487
55.36000 176.816
55.53000 222.824
55.70000 395.597
55.87000 756.248
56.04000 877.640
56.21000 572.733
56.38000 271.203
56.55000 188.703
56.72000 161.764
56.89000 154.884
57.06000 153.313
57.23000 144.224
57.40000 145.007
57.57000 148.706
57.74000 142.359
57.91000 148.633
58.08000 130.423
58.25000 137.741
58.42000 152.043
58.59000 136.003
58.76000 136.150
58.93000 133.161
59.10000 135.234
59.27000 133.781
59.44000 134.857
59.61000 128.823
59.78000 129.326
59.95000 126.778
60.12000 128.017
60.29000 125.708
60.46000 140.691
60.63000 129.113
60.80000 130.714
60.97000 139.460
61.14000 131.365
61.31000 135.311
61.48000 165.032
61.65000 260.937
61.82000 191.369
61.99000 143.405
62.16000 142.543
62.33000 145.027
62.50000 140.608
62.67000 139.299
62.84000 134.363
63.01000 140.825
63.18000 142.226
63.35000 145.648
63.52000 150.666
63.69000 139.311
63.86000 146.529
64.03000 156.350
64.20000 163.236
64.37000 162.754
64.54000 149.558
64.71000 160.745
64.88000 176.113
65.05000 185.601
65.22000 208.023
65.39000 242.113
65.56000 287.785
65.73000 602.225
65.90000 988.812
66.07000 380.500
66.24000 295.422
66.41000 420.157
66.58000 331.921
66.75000 301.296
66.92000 313.252
67.09000 336.934
67.26000 355.324
67.43000 383.801
67.60000 404.665
67.77000 453.944
67.94000 502.953
68.11000 535.965
68.28000 573.564
68.45000 683.564
68.62000 935.519
68.79000 1714.801
68.96000 11181.738
69.13000 49790.223
69.30000 29014.199
69.47000 6645.985
69.64000 1121.502
69.81000 790.757
69.98000 633.937
70.00000 612.788

File: BTO_Mapping_Theta2Theta_24-09-2025_001_60_27-406_-12-202.xy
20.00000 559.194
20.17000 569.967
20.34000 549.576
20.51000 567.571
20.68000 545.138
20.85000 549.278
21.02000 546.896
21.19000 561.054
21.36000 538.445
21.53000 538.167
21.70000 535.602
21.87000 592.161
22.04000 604.605
22.21000 621.140
22.38000 558.813
22.55000 546.270
22.72000 540.180
22.89000 501.712
23.06000 495.064
23.23000 499.458
23.40000 498.717
23.57000 532.566
23.74000 510.810
23.91000 534.163
24.08000 522.160
24.25000 507.530
24.42000 494.516
24.59000 490.047
24.76000 482.345
24.93000 471.066
25.10000 488.962
25.27000 464.625
25.44000 459.852
25.61000 469.165
25.78000 465.798
25.95000 472.104
26.12000 472.412
26.29000 458.935
26.46000 467.007
26.63000 455.250
26.80000 442.530
26.97000 449.745
27.14000 459.778
27.31000 443.212
27.48000 450.988
27.65000 442.429
27.82000 445.557
27.99000 445.893
28.16000 429.491
28.33000 421.025
28.50000 427.668
28.67000 400.847
28.84000 427.315
29.01000 422.138
29.18000 418.808
29.35000 401.100
29.52000 404.042
29.69000 429.924
29.86000 400.703
30.03000 397.172
30.20000 421.630
30.37000 406.387
30.54000 428.131
30.71000 449.359
30.88000 467.118
31.05000 560.752
31.22000 941.129
31.39000 1404.314
31.56000 997.504
31.73000 551.245
31.90000 457.004
32.07000 409.476
32.24000 394.784
32.41000 395.744
32.58000 392.504
32.75000 370.640
32.92000 463.514
33.09000 388.758
33.26000 337.857
33.43000 324.461
33.60000 362.443
33.77000 331.516
33.94000 353.648
34.11000 338.002
34.28000 360.652
34.45000 349.623
34.62000 338.648
34.79000 307.781
34.96000 329.066
35.13000 318.308
35.30000 321.863
35.47000 317.454
35.64000 311.082
35.81000 297.589
35.98000 298.995
36.15000 317.273
36.32000 304.907
36.49000 299.716
36.66000 301.264
36.83000 300.556
37.00000 305.212
37.17000 315.946
37.34000 303.748
37.51000 304.205
37.68000 278.286
37.85000 295.159
38.02000 304.975
38.19000 315.557
38.36000 343.198
38.53000 638.412
38.70000 1306.554
38.87000 1022.027
39.04000 414.677
39.21000 294.423
39.38000 283.277
39.55000 298.691
39.72000 256.301
39.89000 272.112
40.06000 260.524
40.23000 257.355
40.40000 256.605
40.57000 242.412
40.74000 258.616
40.91000 252.608
41.08000 241.544
41.25000 235.850
41.42000 230.104
41.59000 250.149
41.76000 241.811
41.93000 238.684
42.10000 245.890
42.27000 244.425
42.44000 238.852
42.61000 225.994
42.78000 240.180
42.95000 231.427
43.12000 243.745
43.29000 216.727
43.46000 226.984
43.63000 226.982
43.80000 218.596
43.97000 230.094
44.14000 228.109
44.31000 228.484
44.48000 217.410
44.65000 223.119
44.82000 241.020
44.99000 252.712
45.16000 273.176
45.33000 248.571
45.50000 244.978
45.67000 216.970
45.84000 205.008
46.01000 220.853
46.18000 215.170
46.35000 207.628
46.52000 189.006
46.69000 197.893
46.86000 195.676
47.03000 204.931
47.20000 196.750
47.37000 174.720
47.54000 191.403
47.71000 180.533
47.88000 191.431
48.05000 179.143
48.22000 194.099
48.39000 181.875
48.56000 185.070
48.73000 180.099
48.90000 178.642
49.07000 185.038
49.24000 180.766
49.41000 186.813
49.58000 175.119
49.75000 168.194
49.92000 201.882
50.09000 177.868
50.26000 185.898
50.43000 177.734
50.60000 193.593
50.77000 191.642
50.94000 177.482
51.11000 172.033
51.28000 172.875
51.45000 158.703
51.62000 157.973
51.79000 164.857
51.96000 156.652
52.13000 163.393
52.30000 169.968
52.47000 156.342
52.64000 150.788
52.81000 155.638
52.98000 164.374
53.15000 148.911
53.32000 173.968
53.49000 172.831
53.66000 163.301
53.83000 160.756
54.00000 155.938
54.17000 160.526
54.34000 161.388
54.51000 167.564
54.68000 160.909
54.85000 172.221
55.02000 163.158
55.19000 170.637
55.36000 179.449
55.53000 225.855
55.70000 367.338
55.87000 597.889
56.04000 645.184
56.21000 410.565
56.38000 244.918
56.55000 195.309
56.72000 165.070
56.89000 156.116
57.06000 150.972
57.23000 153.085
57.40000 142.825
57.57000 150.213
57.74000 151.126
57.91000 138.393
58.08000 147.914
58.25000 136.615
58.42000 139.799
58.59000 132.673
58.76000 131.239
58.93000 139.777
59.10000 145.100
59.27000 124.911
59.44000 134.825
59.61000 127.218
59.78000 133.564
59.95000 133.069
60.12000 135.799
60.29000 136.145
60.46000 136.962
60.63000 136.619
60.80000 138.183
60.97000 137.535
61.14000 146.145
61.31000 134.226
61.48000 146.652
61.65000 261.246
61.82000 191.440
61.99000 145.222
62.16000 135.173
62.33000 146.520
62.50000 136.815
62.67000 131.015
62.84000 141.544
63.01000 130.168
63.18000 143.044
63.35000 142.157
63.52000 141.139
63.69000 144.953
63.86000 156.331
64.03000 153.792
64.20000 155.330
64.37000 167.733
64.54000 165.154
64.71000 175.642
64.88000 178.893
65.05000 186.598
65.22000 219.366
65.39000 239.194
65.56000 269.768
65.73000 602.861
65.90000 1070.959
66.07000 352.216
66.24000 305.702
66.41000 447.105
66.58000 346.215
66.75000 315.661
66.92000 323.278
67.09000 350.962
67.26000 367.339
67.43000 388.297
67.60000 433.535
67.77000 457.313
67.94000 511.175
68.11000 547.181
68.28000 612.483
68.45000 719.661
68.62000 996.901
68.79000 1786.090
68.96000 11515.759
69.13000 54337.930
69.30000 31772.045
69.47000 7394.604
69.64000 1207.331
69.81000 814.811
69.98000 668.117
70.00000 668.444