Folder: Master-Thesis/XRD/24-09-2025 Dep 3/XY Data (part 2)

File: BTO_Mapping_Theta2Theta_24-09-2025_001_14_3-090_9-511.xy
20.00000 556.836
20.17000 573.625
20.34000 544.098
20.51000 540.283
20.68000 549.454
20.85000 563.185
21.02000 558.746
21.19000 557.647
21.36000 536.905
21.53000 521.137
21.70000 549.117
21.87000 564.708
22.04000 650.005
22.21000 647.810
22.38000 589.264
22.55000 561.672
22.72000 516.609
22.89000 515.310
23.06000 523.480
23.23000 503.967
23.40000 501.051
23.57000 511.654
23.74000 494.189
23.91000 489.932
24.08000 485.178
24.25000 500.272
24.42000 474.010
24.59000 494.710
24.76000 469.958
24.93000 491.585
25.10000 477.464
25.27000 479.832
25.44000 462.253
25.61000 454.996
25.78000 474.150
25.95000 477.732
26.12000 448.416
26.29000 467.401
26.46000 472.917
26.63000 435.323
26.80000 429.200
26.97000 420.763
27.14000 433.705
27.31000 424.797
27.48000 454.850
27.65000 433.317
27.82000 432.476
27.99000 427.251
28.16000 424.951
28.33000 443.451
28.50000 425.364
28.67000 418.369
28.84000 419.626
29.01000 412.557
29.18000 419.512
29.35000 421.449
29.52000 396.250
29.69000 402.455
29.86000 413.993
30.03000 445.488
30.20000 419.600
30.37000 432.229
30.54000 422.353
30.71000 434.017
30.88000 452.446
31.05000 592.633
31.22000 1425.380
31.39000 2669.455
31.56000 1704.354
31.73000 719.994
31.90000 465.579
32.07000 406.728
32.24000 395.585
32.41000 390.365
32.58000 384.308
32.75000 367.951
32.92000 475.074
33.09000 406.599
33.26000 360.788
33.43000 332.401
33.60000 335.245
33.77000 347.705
33.94000 339.823
34.11000 336.876
34.28000 347.827
34.45000 348.485
34.62000 313.689
34.79000 316.315
34.96000 311.699
35.13000 330.947
35.30000 313.087
35.47000 311.745
35.64000 309.529
35.81000 299.971
35.98000 308.429
36.15000 305.681
36.32000 284.417
36.49000 278.992
36.66000 301.245
36.83000 301.785
37.00000 329.367
37.17000 313.188
37.34000 299.337
37.51000 287.156
37.68000 298.856
37.85000 274.897
38.02000 304.451
38.19000 303.746
38.36000 358.760
38.53000 724.191
38.70000 1524.738
38.87000 1128.743
39.04000 433.085
39.21000 298.225
39.38000 277.441
39.55000 275.859
39.72000 281.101
39.89000 278.043
40.06000 269.881
40.23000 250.820
40.40000 251.035
40.57000 244.697
40.74000 251.307
40.91000 248.542
41.08000 240.145
41.25000 254.655
41.42000 252.284
41.59000 246.152
41.76000 239.930
41.93000 239.602
42.10000 227.334
42.27000 232.712
42.44000 220.384
42.61000 229.136
42.78000 230.854
42.95000 223.265
43.12000 223.329
43.29000 232.358
43.46000 224.088
43.63000 230.784
43.80000 217.516
43.97000 220.221
44.14000 213.119
44.31000 225.884
44.48000 219.297
44.65000 215.534
44.82000 247.921
44.99000 303.026
45.16000 311.116
45.33000 274.981
45.50000 250.062
45.67000 248.125
45.84000 235.348
46.01000 214.231
46.18000 210.670
46.35000 194.805
46.52000 218.141
46.69000 210.517
46.86000 205.119
47.03000 187.461
47.20000 200.027
47.37000 187.915
47.54000 186.050
47.71000 192.391
47.88000 181.942
48.05000 190.546
48.22000 180.620
48.39000 182.039
48.56000 181.173
48.73000 174.694
48.90000 175.388
49.07000 175.888
49.24000 184.849
49.41000 174.325
49.58000 174.618
49.75000 189.614
49.92000 174.710
50.09000 169.911
50.26000 179.544
50.43000 191.746
50.60000 214.791
50.77000 221.040
50.94000 207.844
51.11000 188.830
51.28000 177.665
51.45000 177.677
51.62000 172.126
51.79000 171.185
51.96000 170.365
52.13000 166.729
52.30000 159.370
52.47000 161.790
52.64000 168.517
52.81000 163.067
52.98000 157.777
53.15000 160.732
53.32000 155.707
53.49000 150.913
53.66000 168.027
53.83000 149.679
54.00000 147.474
54.17000 166.065
54.34000 159.475
54.51000 146.612
54.68000 154.754
54.85000 136.885
55.02000 154.366
55.19000 162.214
55.36000 166.328
55.53000 231.563
55.70000 385.841
55.87000 774.873
56.04000 850.137
56.21000 507.511
56.38000 262.432
56.55000 192.962
56.72000 175.261
56.89000 157.617
57.06000 147.143
57.23000 143.814
57.40000 155.810
57.57000 146.789
57.74000 145.682
57.91000 130.692
58.08000 140.984
58.25000 141.701
58.42000 140.486
58.59000 128.477
58.76000 138.861
58.93000 143.977
59.10000 131.758
59.27000 130.844
59.44000 132.423
59.61000 123.565
59.78000 139.106
59.95000 132.643
60.12000 143.844
60.29000 132.712
60.46000 130.756
60.63000 134.655
60.80000 128.847
60.97000 142.712
61.14000 132.129
61.31000 136.254
61.48000 147.657
61.65000 267.079
61.82000 194.567
61.99000 144.021
62.16000 142.455
62.33000 133.601
62.50000 139.203
62.67000 148.166
62.84000 143.351
63.01000 142.947
63.18000 135.787
63.35000 147.311
63.52000 144.592
63.69000 152.066
63.86000 148.182
64.03000 145.295
64.20000 159.082
64.37000 169.369
64.54000 151.856
64.71000 171.243
64.88000 183.839
65.05000 190.108
65.22000 230.375
65.39000 274.165
65.56000 358.495
65.73000 661.716
65.90000 1102.017
66.07000 382.516
66.24000 293.480
66.41000 427.410
66.58000 322.703
66.75000 313.195
66.92000 335.922
67.09000 342.886
67.26000 370.798
67.43000 379.814
67.60000 429.928
67.77000 468.656
67.94000 487.933
68.11000 536.869
68.28000 561.681
68.45000 680.854
68.62000 953.311
68.79000 1825.144
68.96000 11687.186
69.13000 53812.766
69.30000 31743.131
69.47000 7682.946
69.64000 1159.231
69.81000 780.952
69.98000 643.187
70.00000 639.095

File: BTO_Mapping_Theta2Theta_24-09-2025_001_15_6-180_19-021.xy
20.00000 558.772
20.17000 570.724
20.34000 546.336
20.51000 544.820
20.68000 551.851
20.85000 537.559
21.02000 548.280
21.19000 568.136
21.36000 541.585
21.53000 542.002
21.70000 564.585
21.87000 549.622
22.04000 631.684
22.21000 594.942
22.38000 586.745
22.55000 540.459
22.72000 508.933
22.89000 507.520
23.06000 516.799
23.23000 495.455
23.40000 514.554
23.57000 481.580
23.74000 496.395
23.91000 478.702
24.08000 494.440
24.25000 481.640
24.42000 489.571
24.59000 479.991
24.76000 503.534
24.93000 464.578
25.10000 496.201
25.27000 456.673
25.44000 447.850
25.61000 465.895
25.78000 449.651
25.95000 479.980
26.12000 443.526
26.29000 449.602
26.46000 432.123
26.63000 453.482
26.80000 451.863
26.97000 441.170
27.14000 426.015
27.31000 422.968
27.48000 446.043
27.65000 437.973
27.82000 431.920
27.99000 431.700
28.16000 434.466
28.33000 418.286
28.50000 408.350
28.67000 403.123
28.84000 414.941
29.01000 404.171
29.18000 418.278
29.35000 398.309
29.52000 407.148
29.69000 419.683
29.86000 428.772
30.03000 417.640
30.20000 429.110
30.37000 421.415
30.54000 413.315
30.71000 412.286
30.88000 449.948
31.05000 552.580
31.22000 1126.508
31.39000 2012.185
31.56000 1490.315
31.73000 667.990
31.90000 451.532
32.07000 401.221
32.24000 391.399
32.41000 386.604
32.58000 376.676
32.75000 368.268
32.92000 455.943
33.09000 424.493
33.26000 353.380
33.43000 335.763
33.60000 331.977
33.77000 332.806
33.94000 328.113
34.11000 329.357
34.28000 329.804
34.45000 328.778
34.62000 330.611
34.79000 305.596
34.96000 312.156
35.13000 314.747
35.30000 305.348
35.47000 312.733
35.64000 296.406
35.81000 305.830
35.98000 300.305
36.15000 296.691
36.32000 302.934
36.49000 298.154
36.66000 306.787
36.83000 306.394
37.00000 304.422
37.17000 317.680
37.34000 290.107
37.51000 291.337
37.68000 296.228
37.85000 286.403
38.02000 285.566
38.19000 308.673
38.36000 356.217
38.53000 665.244
38.70000 1514.224
38.87000 1170.914
39.04000 446.761
39.21000 300.018
39.38000 291.205
39.55000 276.459
39.72000 274.289
39.89000 274.307
40.06000 275.151
40.23000 260.215
40.40000 256.798
40.57000 257.840
40.74000 248.149
40.91000 243.444
41.08000 241.950
41.25000 243.871
41.42000 235.128
41.59000 239.969
41.76000 234.896
41.93000 246.266
42.10000 241.063
42.27000 227.929
42.44000 219.662
42.61000 223.516
42.78000 233.537
42.95000 235.735
43.12000 234.773
43.29000 223.177
43.46000 214.162
43.63000 231.164
43.80000 214.532
43.97000 234.156
44.14000 226.703
44.31000 221.545
44.48000 212.475
44.65000 222.053
44.82000 243.956
44.99000 271.394
45.16000 293.848
45.33000 271.488
45.50000 244.804
45.67000 246.612
45.84000 232.673
46.01000 229.262
46.18000 226.841
46.35000 208.512
46.52000 196.362
46.69000 208.320
46.86000 201.523
47.03000 199.432
47.20000 178.486
47.37000 187.032
47.54000 180.502
47.71000 189.653
47.88000 178.565
48.05000 197.024
48.22000 196.676
48.39000 183.206
48.56000 182.282
48.73000 186.390
48.90000 182.940
49.07000 180.388
49.24000 173.926
49.41000 172.406
49.58000 175.392
49.75000 177.202
49.92000 181.584
50.09000 178.733
50.26000 164.870
50.43000 193.437
50.60000 198.313
50.77000 202.712
50.94000 198.471
51.11000 186.583
51.28000 164.611
51.45000 160.737
51.62000 163.855
51.79000 170.647
51.96000 164.608
52.13000 159.299
52.30000 158.214
52.47000 155.578
52.64000 155.839
52.81000 161.603
52.98000 157.458
53.15000 154.300
53.32000 159.819
53.49000 159.932
53.66000 164.368
53.83000 157.952
54.00000 159.898
54.17000 157.852
54.34000 157.381
54.51000 156.902
54.68000 151.776
54.85000 159.401
55.02000 164.986
55.19000 156.400
55.36000 178.120
55.53000 217.240
55.70000 349.741
55.87000 742.993
56.04000 902.821
56.21000 588.985
56.38000 288.127
56.55000 181.532
56.72000 168.861
56.89000 157.805
57.06000 148.361
57.23000 150.874
57.40000 140.471
57.57000 142.937
57.74000 153.372
57.91000 144.812
58.08000 146.862
58.25000 139.906
58.42000 132.667
58.59000 132.225
58.76000 144.911
58.93000 139.578
59.10000 124.875
59.27000 141.154
59.44000 138.075
59.61000 136.241
59.78000 133.767
59.95000 127.460
60.12000 133.035
60.29000 126.873
60.46000 127.468
60.63000 128.908
60.80000 135.183
60.97000 134.268
61.14000 136.816
61.31000 132.006
61.48000 140.677
61.65000 249.582
61.82000 194.459
61.99000 148.933
62.16000 136.912
62.33000 135.953
62.50000 145.542
62.67000 137.505
62.84000 147.429
63.01000 150.116
63.18000 137.341
63.35000 147.295
63.52000 149.290
63.69000 143.934
63.86000 154.928
64.03000 156.685
64.20000 156.016
64.37000 160.704
64.54000 152.280
64.71000 168.128
64.88000 181.003
65.05000 182.045
65.22000 207.661
65.39000 263.595
65.56000 312.250
65.73000 587.684
65.90000 1057.482
66.07000 417.807
66.24000 295.705
66.41000 437.783
66.58000 336.923
66.75000 299.691
66.92000 338.894
67.09000 344.108
67.26000 365.734
67.43000 387.176
67.60000 410.521
67.77000 443.210
67.94000 454.370
68.11000 528.149
68.28000 590.055
68.45000 678.094
68.62000 929.437
68.79000 1716.742
68.96000 10444.515
69.13000 51762.578
69.30000 30996.967
69.47000 7730.963
69.64000 1168.871
69.81000 797.174
69.98000 667.865
70.00000 657.316

File: BTO_Mapping_Theta2Theta_24-09-2025_001_18_-1-045_9-945.xy
20.00000 570.588
20.17000 555.040
20.34000 559.714
20.51000 562.874
20.68000 560.977
20.85000 536.010
21.02000 561.350
21.19000 554.451
21.36000 547.805
21.53000 548.940
21.70000 548.365
21.87000 583.770
22.04000 686.547
22.21000 662.290
22.38000 591.569
22.55000 541.709
22.72000 527.237
22.89000 516.000
23.06000 522.185
23.23000 512.199
23.40000 495.890
23.57000 502.457
23.74000 496.970
23.91000 490.660
24.08000 509.874
24.25000 489.122
24.42000 484.812
24.59000 485.162
24.76000 501.634
24.93000 487.812
25.10000 462.941
25.27000 487.741
25.44000 465.488
25.61000 461.399
25.78000 452.258
25.95000 457.776
26.12000 444.697
26.29000 429.668
26.46000 470.623
26.63000 435.179
26.80000 447.694
26.97000 437.648
27.14000 444.976
27.31000 440.158
27.48000 439.821
27.65000 441.640
27.82000 432.302
27.99000 425.311
28.16000 405.632
28.33000 435.426
28.50000 409.493
28.67000 416.241
28.84000 417.140
29.01000 434.220
29.18000 406.433
29.35000 416.255
29.52000 405.210
29.69000 416.053
29.86000 412.805
30.03000 451.396
30.20000 450.071
30.37000 432.185
30.54000 420.557
30.71000 448.358
30.88000 465.906
31.05000 661.271
31.22000 1693.240
31.39000 3143.179
31.56000 1942.002
31.73000 750.845
31.90000 475.047
32.07000 428.164
32.24000 401.783
32.41000 376.214
32.58000 378.981
32.75000 367.553
32.92000 475.985
33.09000 402.862
33.26000 344.122
33.43000 336.656
33.60000 352.699
33.77000 342.732
33.94000 336.772
34.11000 329.935
34.28000 317.575
34.45000 320.880
34.62000 320.907
34.79000 332.556
34.96000 313.209
35.13000 313.455
35.30000 315.703
35.47000 303.421
35.64000 313.401
35.81000 312.865
35.98000 315.642
36.15000 301.704
36.32000 298.075
36.49000 304.059
36.66000 304.947
36.83000 312.115
37.00000 312.587
37.17000 299.123
37.34000 288.027
37.51000 296.658
37.68000 292.341
37.85000 290.905
38.02000 304.979
38.19000 330.172
38.36000 388.331
38.53000 744.487
38.70000 1534.852
38.87000 1049.539
39.04000 416.500
39.21000 302.834
39.38000 280.702
39.55000 280.499
39.72000 267.253
39.89000 273.550
40.06000 253.972
40.23000 248.040
40.40000 258.294
40.57000 255.987
40.74000 251.450
40.91000 248.835
41.08000 235.553
41.25000 252.225
41.42000 257.286
41.59000 237.143
41.76000 247.705
41.93000 238.665
42.10000 240.263
42.27000 229.831
42.44000 231.070
42.61000 228.242
42.78000 208.952
42.95000 224.607
43.12000 221.576
43.29000 210.477
43.46000 229.453
43.63000 223.587
43.80000 231.213
43.97000 221.830
44.14000 218.458
44.31000 234.024
44.48000 234.417
44.65000 229.245
44.82000 249.907
44.99000 328.378
45.16000 331.939
45.33000 288.976
45.50000 256.402
45.67000 239.295
45.84000 246.826
46.01000 215.721
46.18000 193.787
46.35000 202.903
46.52000 201.593
46.69000 191.502
46.86000 216.157
47.03000 195.886
47.20000 199.199
47.37000 182.092
47.54000 192.971
47.71000 192.189
47.88000 181.790
48.05000 189.747
48.22000 186.422
48.39000 190.362
48.56000 175.952
48.73000 175.695
48.90000 186.008
49.07000 185.233
49.24000 182.858
49.41000 175.004
49.58000 181.801
49.75000 158.710
49.92000 163.890
50.09000 171.073
50.26000 177.243
50.43000 202.254
50.60000 227.396
50.77000 251.388
50.94000 221.286
51.11000 203.542
51.28000 161.841
51.45000 162.607
51.62000 167.687
51.79000 170.306
51.96000 167.812
52.13000 164.618
52.30000 157.958
52.47000 159.944
52.64000 158.587
52.81000 164.911
52.98000 159.010
53.15000 162.108
53.32000 159.326
53.49000 172.877
53.66000 162.153
53.83000 160.901
54.00000 157.703
54.17000 154.249
54.34000 157.691
54.51000 157.806
54.68000 156.530
54.85000 162.883
55.02000 156.461
55.19000 163.423
55.36000 167.262
55.53000 222.990
55.70000 370.947
55.87000 740.121
56.04000 806.359
56.21000 463.690
56.38000 240.860
56.55000 186.613
56.72000 165.703
56.89000 150.604
57.06000 157.860
57.23000 143.461
57.40000 144.927
57.57000 147.297
57.74000 142.314
57.91000 153.458
58.08000 136.228
58.25000 137.945
58.42000 140.817
58.59000 139.226
58.76000 131.972
58.93000 130.348
59.10000 131.489
59.27000 133.188
59.44000 129.340
59.61000 133.749
59.78000 139.688
59.95000 141.945
60.12000 136.970
60.29000 140.962
60.46000 131.764
60.63000 134.978
60.80000 123.427
60.97000 133.470
61.14000 140.189
61.31000 142.868
61.48000 137.387
61.65000 255.927
61.82000 207.027
61.99000 140.970
62.16000 150.756
62.33000 136.179
62.50000 141.742
62.67000 144.820
62.84000 139.364
63.01000 135.953
63.18000 150.793
63.35000 145.317
63.52000 138.140
63.69000 145.765
63.86000 149.187
64.03000 154.492
64.20000 155.287
64.37000 167.034
64.54000 166.851
64.71000 168.725
64.88000 191.179
65.05000 198.383
65.22000 234.525
65.39000 299.689
65.56000 382.787
65.73000 718.542
65.90000 1161.617
66.07000 407.278
66.24000 325.727
66.41000 455.150
66.58000 340.288
66.75000 319.950
66.92000 320.592
67.09000 339.605
67.26000 370.282
67.43000 387.263
67.60000 406.935
67.77000 445.599
67.94000 480.824
68.11000 547.114
68.28000 592.120
68.45000 686.204
68.62000 1019.969
68.79000 1879.672
68.96000 12377.883
69.13000 56202.109
69.30000 32958.887
69.47000 7835.834
69.64000 1209.903
69.81000 805.739
69.98000 663.011
70.00000 651.343

File: BTO_Mapping_Theta2Theta_24-09-2025_001_20_-3-136_29-836.xy
20.00000 555.183
20.17000 553.761
20.34000 551.332
20.51000 563.194
20.68000 557.944
20.85000 554.371
21.02000 549.059
21.19000 561.098
21.36000 544.829
21.53000 548.415
21.70000 565.822
21.87000 594.393
22.04000 676.101
22.21000 659.451
22.38000 595.969
22.55000 546.895
22.72000 523.767
22.89000 498.432
23.06000 493.007
23.23000 523.493
23.40000 516.872
23.57000 490.215
23.74000 505.959
23.91000 480.677
24.08000 476.154
24.25000 504.784
24.42000 476.824
24.59000 493.828
24.76000 474.977
24.93000 471.509
25.10000 488.172
25.27000 486.935
25.44000 469.276
25.61000 462.147
25.78000 453.493
25.95000 472.219
26.12000 451.662
26.29000 439.410
26.46000 452.239
26.63000 464.664
26.80000 444.404
26.97000 439.633
27.14000 455.256
27.31000 434.259
27.48000 431.311
27.65000 427.834
27.82000 436.314
27.99000 418.755
28.16000 428.457
28.33000 425.765
28.50000 405.084
28.67000 436.361
28.84000 415.879
29.01000 416.735
29.18000 414.388
29.35000 411.486
29.52000 414.774
29.69000 398.265
29.86000 424.034
30.03000 446.516
30.20000 445.760
30.37000 428.774
30.54000 411.993
30.71000 412.119
30.88000 461.433
31.05000 578.104
31.22000 1378.645
31.39000 2669.328
31.56000 1842.765
31.73000 726.951
31.90000 488.392
32.07000 429.063
32.24000 408.624
32.41000 382.352
32.58000 388.040
32.75000 371.427
32.92000 483.971
33.09000 398.227
33.26000 339.861
33.43000 343.192
33.60000 344.103
33.77000 332.788
33.94000 328.551
34.11000 331.548
34.28000 316.069
34.45000 335.181
34.62000 320.398
34.79000 326.321
34.96000 316.779
35.13000 313.501
35.30000 320.553
35.47000 318.779
35.64000 305.754
35.81000 316.646
35.98000 298.442
36.15000 313.478
36.32000 301.967
36.49000 301.898
36.66000 305.496
36.83000 283.660
37.00000 312.508
37.17000 325.457
37.34000 301.238
37.51000 303.261
37.68000 293.168
37.85000 275.421
38.02000 307.670
38.19000 309.117
38.36000 358.977
38.53000 701.461
38.70000 1537.709
38.87000 1164.481
39.04000 443.601
39.21000 322.310
39.38000 286.464
39.55000 283.111
39.72000 268.139
39.89000 265.668
40.06000 267.693
40.23000 263.321
40.40000 260.572
40.57000 247.179
40.74000 258.536
40.91000 248.348
41.08000 230.709
41.25000 245.627
41.42000 240.988
41.59000 232.205
41.76000 244.631
41.93000 225.753
42.10000 244.440
42.27000 239.968
42.44000 238.950
42.61000 231.594
42.78000 234.310
42.95000 239.280
43.12000 216.178
43.29000 239.263
43.46000 217.505
43.63000 217.451
43.80000 215.382
43.97000 211.906
44.14000 225.514
44.31000 226.926
44.48000 230.199
44.65000 228.582
44.82000 241.485
44.99000 295.132
45.16000 320.279
45.33000 298.296
45.50000 271.122
45.67000 262.943
45.84000 236.772
46.01000 217.880
46.18000 216.269
46.35000 202.401
46.52000 209.627
46.69000 201.824
46.86000 191.453
47.03000 199.668
47.20000 192.588
47.37000 198.919
47.54000 176.089
47.71000 193.633
47.88000 189.436
48.05000 192.396
48.22000 183.064
48.39000 188.441
48.56000 186.446
48.73000 180.581
48.90000 182.333
49.07000 174.731
49.24000 174.915
49.41000 182.850
49.58000 172.428
49.75000 170.153
49.92000 165.744
50.09000 179.735
50.26000 176.867
50.43000 207.174
50.60000 228.084
50.77000 227.717
50.94000 212.869
51.11000 182.595
51.28000 169.449
51.45000 174.422
51.62000 163.266
51.79000 159.709
51.96000 161.176
52.13000 159.224
52.30000 161.485
52.47000 159.546
52.64000 161.331
52.81000 160.889
52.98000 144.790
53.15000 155.250
53.32000 168.207
53.49000 160.408
53.66000 154.150
53.83000 156.159
54.00000 149.827
54.17000 146.048
54.34000 153.193
54.51000 153.212
54.68000 157.285
54.85000 167.234
55.02000 164.599
55.19000 176.607
55.36000 171.516
55.53000 196.961
55.70000 349.410
55.87000 724.525
56.04000 860.010
56.21000 500.883
56.38000 268.600
56.55000 196.976
56.72000 163.745
56.89000 165.341
57.06000 156.526
57.23000 143.153
57.40000 156.111
57.57000 149.423
57.74000 140.988
57.91000 150.611
58.08000 135.722
58.25000 131.464
58.42000 133.369
58.59000 135.888
58.76000 135.020
58.93000 130.810
59.10000 135.425
59.27000 136.193
59.44000 131.654
59.61000 130.721
59.78000 138.166
59.95000 131.096
60.12000 128.053
60.29000 126.205
60.46000 132.576
60.63000 127.642
60.80000 130.797
60.97000 128.773
61.14000 140.322
61.31000 134.172
61.48000 132.483
61.65000 271.603
61.82000 199.033
61.99000 150.677
62.16000 133.596
62.33000 133.341
62.50000 132.990
62.67000 153.298
62.84000 146.692
63.01000 140.918
63.18000 161.214
63.35000 147.595
63.52000 146.650
63.69000 146.048
63.86000 151.484
64.03000 147.430
64.20000 153.518
64.37000 160.288
64.54000 169.369
64.71000 165.439
64.88000 168.012
65.05000 188.429
65.22000 223.988
65.39000 281.342
65.56000 359.938
65.73000 671.790
65.90000 1139.321
66.07000 416.820
66.24000 331.729
66.41000 462.385
66.58000 338.110
66.75000 309.637
66.92000 337.617
67.09000 356.679
67.26000 367.672
67.43000 405.578
67.60000 434.144
67.77000 469.281
67.94000 493.957
68.11000 537.733
68.28000 610.827
68.45000 700.064
68.62000 983.195
68.79000 1856.484
68.96000 11627.416
69.13000 56069.230
69.30000 33323.281
69.47000 8387.074
69.64000 1209.464
69.81000 816.401
69.98000 655.281
70.00000 636.675

File: BTO_Mapping_Theta2Theta_24-09-2025_001_21_-4-181_39-781.xy
20.00000 564.938
20.17000 567.872
20.34000 544.180
20.51000 551.483
20.68000 556.989
20.85000 551.731
21.02000 555.122
21.19000 543.916
21.36000 550.218
21.53000 549.978
21.70000 545.170
21.87000 590.769
22.04000 659.662
22.21000 654.749
22.38000 607.331
22.55000 554.864
22.72000 535.469
22.89000 513.806
23.06000 504.213
23.23000 509.517
23.40000 523.485
23.57000 486.764
23.74000 505.914
23.91000 480.441
24.08000 490.028
24.25000 492.346
24.42000 494.298
24.59000 495.645
24.76000 491.492
24.93000 463.087
25.10000 434.936
25.27000 472.916
25.44000 468.490
25.61000 454.015
25.78000 458.272
25.95000 453.412
26.12000 462.018
26.29000 457.761
26.46000 449.931
26.63000 451.932
26.80000 445.802
26.97000 446.106
27.14000 455.474
27.31000 447.699
27.48000 429.864
27.65000 431.203
27.82000 429.863
27.99000 425.358
28.16000 433.183
28.33000 446.397
28.50000 411.659
28.67000 417.772
28.84000 414.701
29.01000 405.636
29.18000 407.389
29.35000 412.639
29.52000 422.318
29.69000 419.402
29.86000 421.846
30.03000 434.594
30.20000 421.657
30.37000 411.260
30.54000 425.771
30.71000 431.301
30.88000 462.864
31.05000 549.555
31.22000 1139.441
31.39000 2259.095
31.56000 1698.230
31.73000 734.074
31.90000 476.417
32.07000 411.346
32.24000 405.649
32.41000 383.694
32.58000 372.469
32.75000 378.014
32.92000 465.450
33.09000 416.998
33.26000 333.594
33.43000 329.893
33.60000 355.163
33.77000 324.527
33.94000 333.686
34.11000 332.070
34.28000 325.514
34.45000 345.209
34.62000 308.260
34.79000 320.984
34.96000 321.382
35.13000 317.788
35.30000 331.411
35.47000 311.399
35.64000 317.549
35.81000 297.577
35.98000 298.342
36.15000 305.359
36.32000 296.280
36.49000 299.658
36.66000 309.044
36.83000 308.544
37.00000 321.573
37.17000 307.357
37.34000 299.365
37.51000 288.912
37.68000 291.833
37.85000 291.225
38.02000 302.303
38.19000 301.328
38.36000 337.338
38.53000 646.980
38.70000 1500.259
38.87000 1264.927
39.04000 474.552
39.21000 304.623
39.38000 283.207
39.55000 276.334
39.72000 271.797
39.89000 249.894
40.06000 263.669
40.23000 253.313
40.40000 246.332
40.57000 248.861
40.74000 245.326
40.91000 240.378
41.08000 239.260
41.25000 235.068
41.42000 248.745
41.59000 232.443
41.76000 242.855
41.93000 249.271
42.10000 235.530
42.27000 237.529
42.44000 235.063
42.61000 233.854
42.78000 229.115
42.95000 225.348
43.12000 216.806
43.29000 212.479
43.46000 228.962
43.63000 212.730
43.80000 232.850
43.97000 225.747
44.14000 221.623
44.31000 229.720
44.48000 223.280
44.65000 233.956
44.82000 239.186
44.99000 292.345
45.16000 309.177
45.33000 300.785
45.50000 274.535
45.67000 255.111
45.84000 232.545
46.01000 218.645
46.18000 227.513
46.35000 197.544
46.52000 189.773
46.69000 183.962
46.86000 208.746
47.03000 195.446
47.20000 203.153
47.37000 185.527
47.54000 188.647
47.71000 179.687
47.88000 187.948
48.05000 197.227
48.22000 184.528
48.39000 174.784
48.56000 183.434
48.73000 183.539
48.90000 172.895
49.07000 177.628
49.24000 169.640
49.41000 183.073
49.58000 165.101
49.75000 166.384
49.92000 175.485
50.09000 180.994
50.26000 183.086
50.43000 180.901
50.60000 221.174
50.77000 236.852
50.94000 217.088
51.11000 191.814
51.28000 184.810
51.45000 166.112
51.62000 163.918
51.79000 154.693
51.96000 157.655
52.13000 159.700
52.30000 159.506
52.47000 154.295
52.64000 147.047
52.81000 147.665
52.98000 157.812
53.15000 157.611
53.32000 161.892
53.49000 159.429
53.66000 157.373
53.83000 160.848
54.00000 156.809
54.17000 155.318
54.34000 160.882
54.51000 154.015
54.68000 157.365
54.85000 152.536
55.02000 157.944
55.19000 165.023
55.36000 172.543
55.53000 208.706
55.70000 337.231
55.87000 696.987
56.04000 879.786
56.21000 578.219
56.38000 293.652
56.55000 206.457
56.72000 167.375
56.89000 157.480
57.06000 149.283
57.23000 143.140
57.40000 131.304
57.57000 146.456
57.74000 145.594
57.91000 139.469
58.08000 128.620
58.25000 135.923
58.42000 135.363
58.59000 136.757
58.76000 133.860
58.93000 138.018
59.10000 139.073
59.27000 121.829
59.44000 132.450
59.61000 129.020
59.78000 143.177
59.95000 129.564
60.12000 136.398
60.29000 136.265
60.46000 133.091
60.63000 139.141
60.80000 129.464
60.97000 133.665
61.14000 141.543
61.31000 137.496
61.48000 152.351
61.65000 263.579
61.82000 213.178
61.99000 142.185
62.16000 137.975
62.33000 146.684
62.50000 142.204
62.67000 155.228
62.84000 137.651
63.01000 144.408
63.18000 138.630
63.35000 131.730
63.52000 145.448
63.69000 151.648
63.86000 145.573
64.03000 149.840
64.20000 143.129
64.37000 162.786
64.54000 172.978
64.71000 169.485
64.88000 180.962
65.05000 173.507
65.22000 204.448
65.39000 250.865
65.56000 329.884
65.73000 617.323
65.90000 1137.212
66.07000 401.701
66.24000 303.200
66.41000 438.075
66.58000 340.531
66.75000 308.000
66.92000 330.587
67.09000 357.799
67.26000 363.445
67.43000 388.544
67.60000 430.539
67.77000 451.455
67.94000 489.419
68.11000 553.773
68.28000 583.469
68.45000 701.603
68.62000 1002.247
68.79000 1827.070
68.96000 10378.585
69.13000 54951.742
69.30000 33381.367
69.47000 8813.470
69.64000 1208.661
69.81000 810.171
69.98000 663.980
70.00000 663.271