Folder: Master-Thesis/XRD/XRD/11-09-2025/XY Data (part 2)

File: 01092025_BTO_omega_0_5_001_12_-2-782_12-187.xy
20.00000 16.096
20.16000 29.315
20.32000 19.175
20.48000 22.577
20.64000 13.221
20.80000 21.287
20.96000 18.314
21.12000 23.164
21.28000 13.094
21.44000 23.204
21.60000 25.474
21.76000 17.369
21.92000 25.487
22.08000 26.495
22.24000 19.143
22.40000 21.048
22.56000 22.257
22.72000 27.359
22.88000 25.407
23.04000 17.105
23.20000 18.266
23.36000 26.452
23.52000 24.177
23.68000 29.353
23.84000 24.312
24.00000 29.364
24.16000 28.251
24.32000 25.359
24.48000 31.578
24.64000 34.688
24.80000 38.130
24.96000 38.535
25.12000 33.486
25.28000 52.393
25.44000 44.619
25.60000 43.757
25.76000 41.465
25.92000 45.343
26.08000 50.666
26.24000 52.632
26.40000 46.635
26.56000 55.059
26.72000 60.854
26.88000 42.708
27.04000 73.040
27.20000 88.031
27.36000 68.187
27.52000 46.602
27.68000 52.523
27.84000 67.871
28.00000 41.357
28.16000 66.020
28.32000 70.169
28.48000 55.078
28.64000 60.733
28.80000 48.517
28.96000 49.328
29.12000 47.482
29.28000 42.621
29.44000 44.894
29.60000 49.632
29.76000 46.590
29.92000 44.703
30.08000 36.302
30.24000 41.619
30.40000 31.622
30.56000 34.520
30.72000 27.392
30.88000 39.698
31.04000 33.244
31.20000 34.626
31.36000 39.718
31.52000 28.264
31.68000 32.470
31.84000 25.664
32.00000 25.309
32.16000 32.511
32.32000 23.436
32.48000 25.300
32.64000 29.421
32.80000 21.254
32.96000 26.514
33.12000 23.504
33.28000 17.266
33.44000 29.539
33.60000 27.074
33.76000 23.288
33.92000 14.313
34.08000 19.469
34.24000 15.046
34.40000 21.243
34.56000 26.185
34.72000 17.407
34.88000 18.202
35.04000 23.240
35.20000 19.099
35.36000 19.165
35.52000 25.270
35.68000 12.027
35.84000 20.193
36.00000 21.330
36.16000 21.280
36.32000 14.301
36.48000 15.299
36.64000 17.167
36.80000 23.277
36.96000 22.286
37.12000 19.447
37.28000 20.251
37.44000 15.187
37.60000 16.259
37.76000 17.275
37.92000 20.183
38.08000 33.419
38.24000 25.447
38.40000 26.412
38.56000 23.311
38.72000 25.518
38.88000 13.283
39.04000 25.336
39.20000 17.389
39.36000 27.419
39.52000 24.451
39.68000 21.247
39.84000 21.366
40.00000 24.273
40.16000 22.298
40.32000 24.362
40.48000 25.416
40.64000 22.272
40.80000 18.098
40.96000 15.061
41.12000 23.416
41.28000 18.250
41.44000 19.346
41.60000 18.941
41.76000 24.081
41.92000 21.328
42.08000 20.372
42.24000 22.402
42.40000 26.182
42.56000 21.388
42.72000 20.393
42.88000 21.306
43.04000 21.291
43.20000 27.391
43.36000 22.227
43.52000 27.334
43.68000 27.166
43.84000 14.177
44.00000 18.283
44.16000 18.981
44.32000 16.303
44.48000 17.283
44.64000 29.506
44.80000 21.214
44.96000 24.252
45.12000 21.418
45.28000 23.201
45.44000 21.471
45.60000 23.171
45.76000 17.121
45.92000 18.145
46.08000 22.308
46.24000 23.403
46.40000 14.215
46.56000 15.285
46.72000 26.083
46.88000 16.197
47.04000 8.021
47.20000 18.112
47.36000 24.478
47.52000 19.292
47.68000 22.217
47.84000 16.243
48.00000 21.218
48.16000 26.273
48.32000 24.395
48.48000 21.307
48.64000 20.130
48.80000 22.173
48.96000 19.125
49.12000 29.284
49.28000 16.230
49.44000 22.278
49.60000 22.288
49.76000 12.992
49.92000 17.480
50.08000 22.547
50.24000 19.147
50.40000 16.173
50.56000 17.264
50.72000 11.102
50.88000 16.267
51.04000 15.159
51.20000 18.298
51.36000 18.077
51.52000 10.126
51.68000 17.339
51.84000 16.064
52.00000 20.105
52.16000 18.169
52.32000 12.056
52.48000 15.346
52.64000 16.278
52.80000 14.296
52.96000 18.397
53.12000 11.144
53.28000 18.210
53.44000 16.289
53.60000 14.193
53.76000 22.181
53.92000 18.383
54.08000 15.090
54.24000 12.133
54.40000 14.190
54.56000 16.229
54.72000 14.129
54.88000 12.168
55.04000 13.932
55.20000 16.323
55.36000 9.170
55.52000 13.257
55.68000 7.101
55.84000 15.224
56.00000 14.285
56.16000 10.195
56.32000 17.239
56.48000 16.163
56.64000 11.143
56.80000 15.366
56.96000 9.086
57.12000 19.138
57.28000 8.103
57.44000 8.259
57.60000 16.146
57.76000 13.149
57.92000 15.038
58.08000 11.355
58.24000 13.078
58.40000 8.088
58.56000 10.007
58.72000 11.149
58.88000 10.029
59.04000 19.272
59.20000 8.122
59.36000 8.016
59.52000 9.212
59.68000 8.041
59.84000 11.108
60.00000 17.215
60.16000 11.074
60.32000 10.164
60.48000 8.040
60.64000 8.273
60.80000 4.009
60.96000 9.065
61.12000 8.083
61.28000 8.234
61.44000 7.014
61.60000 13.288
61.76000 11.010
61.92000 7.049
62.08000 3.000
62.24000 8.076
62.40000 6.081
62.56000 11.092
62.72000 6.170
62.88000 11.200
63.04000 12.144
63.20000 3.057
63.36000 10.176
63.52000 12.098
63.68000 6.085
63.84000 7.088
64.00000 15.246
64.16000 9.190
64.32000 8.120
64.48000 10.149
64.64000 10.097
64.80000 4.959
64.96000 3.981
65.00000 7.876

File: 01092025_BTO_omega_0_5_001_13_33-786_16-271.xy
20.00000 20.310
20.16000 21.306
20.32000 15.278
20.48000 20.275
20.64000 21.180
20.80000 19.155
20.96000 17.214
21.12000 11.304
21.28000 24.309
21.44000 21.072
21.60000 20.293
21.76000 21.376
21.92000 20.410
22.08000 23.055
22.24000 23.384
22.40000 21.409
22.56000 40.641
22.72000 26.162
22.88000 24.167
23.04000 26.334
23.20000 22.390
23.36000 31.700
23.52000 23.475
23.68000 37.442
23.84000 26.400
24.00000 24.178
24.16000 31.506
24.32000 45.400
24.48000 41.321
24.64000 38.428
24.80000 48.766
24.96000 40.448
25.12000 38.421
25.28000 44.467
25.44000 49.620
25.60000 42.800
25.76000 52.433
25.92000 45.519
26.08000 43.526
26.24000 57.928
26.40000 52.460
26.56000 61.017
26.72000 58.950
26.88000 56.875
27.04000 63.886
27.20000 58.553
27.36000 60.719
27.52000 69.841
27.68000 54.484
27.84000 67.948
28.00000 76.446
28.16000 68.234
28.32000 53.712
28.48000 57.817
28.64000 73.618
28.80000 66.400
28.96000 70.723
29.12000 49.811
29.28000 62.614
29.44000 44.662
29.60000 57.996
29.76000 46.564
29.92000 43.707
30.08000 35.410
30.24000 48.903
30.40000 35.566
30.56000 42.363
30.72000 37.401
30.88000 37.642
31.04000 38.339
31.20000 43.502
31.36000 44.565
31.52000 28.302
31.68000 26.270
31.84000 28.620
32.00000 35.699
32.16000 23.331
32.32000 24.255
32.48000 25.479
32.64000 21.214
32.80000 32.581
32.96000 22.377
33.12000 22.323
33.28000 21.279
33.44000 20.322
33.60000 26.353
33.76000 20.094
33.92000 21.246
34.08000 13.226
34.24000 19.364
34.40000 22.281
34.56000 14.036
34.72000 20.227
34.88000 14.113
35.04000 11.031
35.20000 16.015
35.36000 23.412
35.52000 14.220
35.68000 9.222
35.84000 22.068
36.00000 18.183
36.16000 25.312
36.32000 19.366
36.48000 14.356
36.64000 28.467
36.80000 23.356
36.96000 15.208
37.12000 14.232
37.28000 21.381
37.44000 25.340
37.60000 18.266
37.76000 23.297
37.92000 17.235
38.08000 19.224
38.24000 19.224
38.40000 21.366
38.56000 26.380
38.72000 21.319
38.88000 27.286
39.04000 20.222
39.20000 17.188
39.36000 22.356
39.52000 21.645
39.68000 18.130
39.84000 26.286
40.00000 16.088
40.16000 30.628
40.32000 18.305
40.48000 23.246
40.64000 18.396
40.80000 14.062
40.96000 20.271
41.12000 26.396
41.28000 28.306
41.44000 24.281
41.60000 24.248
41.76000 14.158
41.92000 20.321
42.08000 23.316
42.24000 36.586
42.40000 20.209
42.56000 27.534
42.72000 22.312
42.88000 20.400
43.04000 24.486
43.20000 26.557
43.36000 25.376
43.52000 17.376
43.68000 26.170
43.84000 17.193
44.00000 21.363
44.16000 17.168
44.32000 17.247
44.48000 19.409
44.64000 22.350
44.80000 19.340
44.96000 18.267
45.12000 19.248
45.28000 24.343
45.44000 20.306
45.60000 20.387
45.76000 19.195
45.92000 19.456
46.08000 15.179
46.24000 27.382
46.40000 19.185
46.56000 24.218
46.72000 16.142
46.88000 21.210
47.04000 28.249
47.20000 20.363
47.36000 23.147
47.52000 25.258
47.68000 17.096
47.84000 22.561
48.00000 17.203
48.16000 16.313
48.32000 23.401
48.48000 18.369
48.64000 19.152
48.80000 15.235
48.96000 14.241
49.12000 21.434
49.28000 15.263
49.44000 15.189
49.60000 19.450
49.76000 22.376
49.92000 11.091
50.08000 17.214
50.24000 9.048
50.40000 21.317
50.56000 7.195
50.72000 18.359
50.88000 24.399
51.04000 17.291
51.20000 18.245
51.36000 19.098
51.52000 27.331
51.68000 15.291
51.84000 17.176
52.00000 13.164
52.16000 15.317
52.32000 10.150
52.48000 11.131
52.64000 16.250
52.80000 12.176
52.96000 8.040
53.12000 11.196
53.28000 13.257
53.44000 16.196
53.60000 13.156
53.76000 18.209
53.92000 9.072
54.08000 13.231
54.24000 12.093
54.40000 17.086
54.56000 15.221
54.72000 14.341
54.88000 8.087
55.04000 11.053
55.20000 15.183
55.36000 19.354
55.52000 8.161
55.68000 13.253
55.84000 12.107
56.00000 13.175
56.16000 16.315
56.32000 10.098
56.48000 13.122
56.64000 14.164
56.80000 14.347
56.96000 8.052
57.12000 10.219
57.28000 8.075
57.44000 13.243
57.60000 9.145
57.76000 10.249
57.92000 9.079
58.08000 10.166
58.24000 13.134
58.40000 8.170
58.56000 7.989
58.72000 3.943
58.88000 9.163
59.04000 15.317
59.20000 9.170
59.36000 15.249
59.52000 12.108
59.68000 11.173
59.84000 6.095
60.00000 13.330
60.16000 16.168
60.32000 5.057
60.48000 10.013
60.64000 4.073
60.80000 12.029
60.96000 10.011
61.12000 10.275
61.28000 8.110
61.44000 10.039
61.60000 8.131
61.76000 8.198
61.92000 5.976
62.08000 9.217
62.24000 8.150
62.40000 6.131
62.56000 9.066
62.72000 4.102
62.88000 9.063
63.04000 7.979
63.20000 15.244
63.36000 11.230
63.52000 8.063
63.68000 8.235
63.84000 7.162
64.00000 9.108
64.16000 9.059
64.32000 6.049
64.48000 10.054
64.64000 5.984
64.80000 7.070
64.96000 10.297
65.00000 6.011

File: 01092025_BTO_omega_0_5_001_14_-33-413_17-025.xy
20.00000 18.249
20.16000 25.219
20.32000 19.141
20.48000 23.291
20.64000 18.200
20.80000 20.215
20.96000 19.268
21.12000 22.325
21.28000 22.453
21.44000 27.095
21.60000 20.291
21.76000 30.556
21.92000 31.751
22.08000 23.384
22.24000 24.383
22.40000 16.130
22.56000 22.444
22.72000 22.245
22.88000 33.595
23.04000 31.429
23.20000 25.325
23.36000 26.485
23.52000 37.405
23.68000 31.425
23.84000 22.135
24.00000 31.550
24.16000 28.216
24.32000 36.524
24.48000 24.311
24.64000 36.675
24.80000 34.524
24.96000 43.651
25.12000 44.257
25.28000 41.442
25.44000 42.767
25.60000 38.784
25.76000 46.506
25.92000 49.427
26.08000 36.631
26.24000 54.585
26.40000 62.500
26.56000 50.508
26.72000 63.820
26.88000 63.044
27.04000 57.523
27.20000 59.717
27.36000 45.443
27.52000 60.962
27.68000 51.528
27.84000 51.738
28.00000 48.676
28.16000 53.601
28.32000 51.895
28.48000 55.789
28.64000 48.736
28.80000 41.681
28.96000 51.329
29.12000 32.367
29.28000 46.497
29.44000 43.586
29.60000 36.467
29.76000 39.429
29.92000 40.428
30.08000 36.497
30.24000 41.569
30.40000 32.603
30.56000 43.644
30.72000 39.405
30.88000 28.453
31.04000 31.564
31.20000 31.349
31.36000 37.346
31.52000 29.290
31.68000 21.450
31.84000 25.533
32.00000 29.637
32.16000 33.471
32.32000 26.319
32.48000 32.462
32.64000 26.312
32.80000 25.560
32.96000 34.597
33.12000 26.360
33.28000 20.176
33.44000 15.077
33.60000 15.187
33.76000 26.240
33.92000 16.161
34.08000 15.104
34.24000 22.215
34.40000 23.195
34.56000 20.117
34.72000 21.406
34.88000 22.120
35.04000 15.119
35.20000 23.409
35.36000 20.245
35.52000 12.102
35.68000 14.088
35.84000 22.234
36.00000 15.369
36.16000 14.111
36.32000 25.417
36.48000 22.348
36.64000 15.047
36.80000 14.120
36.96000 19.439
37.12000 27.413
37.28000 12.131
37.44000 13.107
37.60000 20.212
37.76000 20.296
37.92000 21.304
38.08000 16.190
38.24000 22.389
38.40000 22.147
38.56000 15.984
38.72000 20.163
38.88000 23.065
39.04000 20.440
39.20000 28.699
39.36000 19.148
39.52000 27.401
39.68000 16.129
39.84000 18.125
40.00000 19.203
40.16000 24.257
40.32000 18.191
40.48000 22.201
40.64000 15.159
40.80000 26.510
40.96000 21.273
41.12000 19.026
41.28000 28.357
41.44000 19.329
41.60000 18.484
41.76000 16.213
41.92000 15.320
42.08000 25.311
42.24000 24.194
42.40000 21.330
42.56000 23.185
42.72000 16.204
42.88000 20.512
43.04000 20.318
43.20000 24.247
43.36000 21.126
43.52000 28.586
43.68000 29.454
43.84000 22.247
44.00000 25.389
44.16000 21.200
44.32000 26.464
44.48000 27.403
44.64000 25.230
44.80000 19.305
44.96000 22.264
45.12000 20.192
45.28000 24.356
45.44000 21.512
45.60000 18.403
45.76000 23.237
45.92000 22.226
46.08000 23.342
46.24000 23.298
46.40000 17.276
46.56000 22.352
46.72000 20.149
46.88000 27.541
47.04000 16.166
47.20000 15.329
47.36000 19.402
47.52000 17.195
47.68000 17.298
47.84000 16.201
48.00000 18.241
48.16000 16.168
48.32000 19.098
48.48000 13.086
48.64000 14.297
48.80000 23.471
48.96000 26.408
49.12000 26.280
49.28000 7.022
49.44000 15.186
49.60000 22.072
49.76000 12.136
49.92000 18.218
50.08000 8.070
50.24000 18.093
50.40000 14.094
50.56000 16.311
50.72000 17.084
50.88000 16.224
51.04000 14.060
51.20000 9.987
51.36000 14.153
51.52000 22.278
51.68000 20.235
51.84000 16.121
52.00000 22.541
52.16000 16.243
52.32000 17.244
52.48000 8.220
52.64000 17.162
52.80000 20.101
52.96000 16.057
53.12000 10.116
53.28000 22.292
53.44000 11.233
53.60000 12.315
53.76000 12.124
53.92000 11.041
54.08000 9.094
54.24000 15.191
54.40000 17.288
54.56000 11.086
54.72000 11.133
54.88000 11.194
55.04000 15.146
55.20000 11.238
55.36000 14.201
55.52000 12.347
55.68000 14.219
55.84000 10.171
56.00000 9.161
56.16000 11.144
56.32000 10.144
56.48000 12.214
56.64000 9.169
56.80000 10.124
56.96000 13.105
57.12000 18.220
57.28000 20.127
57.44000 12.287
57.60000 14.173
57.76000 15.150
57.92000 10.019
58.08000 6.020
58.24000 16.385
58.40000 11.288
58.56000 14.065
58.72000 7.076
58.88000 7.044
59.04000 10.234
59.20000 9.027
59.36000 9.142
59.52000 9.096
59.68000 12.086
59.84000 14.095
60.00000 10.196
60.16000 11.097
60.32000 9.176
60.48000 6.078
60.64000 13.153
60.80000 12.230
60.96000 8.059
61.12000 9.117
61.28000 10.022
61.44000 10.111
61.60000 5.012
61.76000 9.133
61.92000 6.055
62.08000 15.311
62.24000 8.098
62.40000 9.190
62.56000 11.298
62.72000 5.011
62.88000 9.087
63.04000 12.230
63.20000 13.145
63.36000 7.049
63.52000 7.999
63.68000 7.086
63.84000 7.134
64.00000 10.023
64.16000 12.221
64.32000 7.072
64.48000 7.149
64.64000 7.126
64.80000 9.083
64.96000 10.131
65.00000 6.047

File: 01092025_BTO_omega_0_5_001_16_15-587_19-546.xy
20.00000 15.135
20.16000 16.045
20.32000 26.346
20.48000 21.156
20.64000 18.169
20.80000 16.340
20.96000 16.198
21.12000 23.350
21.28000 20.341
21.44000 17.162
21.60000 18.206
21.76000 24.390
21.92000 26.478
22.08000 26.350
22.24000 22.304
22.40000 33.355
22.56000 30.392
22.72000 22.409
22.88000 27.489
23.04000 24.408
23.20000 35.645
23.36000 25.231
23.52000 22.274
23.68000 30.455
23.84000 30.314
24.00000 33.418
24.16000 31.388
24.32000 30.263
24.48000 31.189
24.64000 38.441
24.80000 35.556
24.96000 34.367
25.12000 45.695
25.28000 54.593
25.44000 46.719
25.60000 36.482
25.76000 51.847
25.92000 52.508
26.08000 46.377
26.24000 53.669
26.40000 51.766
26.56000 58.098
26.72000 50.998
26.88000 52.692
27.04000 69.149
27.20000 58.963
27.36000 71.896
27.52000 55.706
27.68000 62.981
27.84000 41.699
28.00000 69.811
28.16000 65.357
28.32000 44.600
28.48000 58.893
28.64000 63.664
28.80000 60.996
28.96000 55.871
29.12000 57.649
29.28000 64.763
29.44000 55.722
29.60000 54.022
29.76000 44.517
29.92000 51.861
30.08000 47.628
30.24000 31.524
30.40000 46.434
30.56000 46.701
30.72000 35.373
30.88000 33.775
31.04000 33.173
31.20000 37.363
31.36000 32.906
31.52000 37.715
31.68000 28.297
31.84000 28.290
32.00000 37.378
32.16000 25.201
32.32000 29.448
32.48000 28.331
32.64000 37.597
32.80000 24.146
32.96000 19.202
33.12000 14.262
33.28000 14.133
33.44000 24.461
33.60000 17.406
33.76000 25.162
33.92000 18.366
34.08000 16.253
34.24000 21.227
34.40000 22.374
34.56000 20.209
34.72000 16.209
34.88000 28.491
35.04000 25.424
35.20000 14.322
35.36000 21.309
35.52000 16.961
35.68000 15.267
35.84000 10.107
36.00000 23.354
36.16000 18.258
36.32000 23.199
36.48000 13.198
36.64000 16.066
36.80000 16.064
36.96000 18.266
37.12000 19.289
37.28000 21.352
37.44000 16.170
37.60000 21.410
37.76000 24.415
37.92000 26.507
38.08000 29.456
38.24000 20.338
38.40000 18.235
38.56000 23.298
38.72000 25.144
38.88000 21.381
39.04000 28.301
39.20000 28.231
39.36000 19.288
39.52000 16.140
39.68000 19.328
39.84000 20.109
40.00000 18.087
40.16000 19.121
40.32000 28.384
40.48000 20.269
40.64000 23.331
40.80000 21.278
40.96000 12.178
41.12000 16.190
41.28000 23.311
41.44000 19.266
41.60000 22.410
41.76000 21.246
41.92000 24.465
42.08000 15.236
42.24000 20.459
42.40000 23.269
42.56000 16.062
42.72000 25.224
42.88000 26.329
43.04000 20.215
43.20000 21.422
43.36000 24.483
43.52000 21.305
43.68000 21.314
43.84000 24.498
44.00000 22.251
44.16000 15.212
44.32000 28.323
44.48000 18.357
44.64000 14.040
44.80000 23.412
44.96000 25.345
45.12000 18.209
45.28000 19.319
45.44000 17.276
45.60000 22.387
45.76000 15.251
45.92000 21.539
46.08000 22.344
46.24000 11.264
46.40000 18.199
46.56000 14.165
46.72000 27.281
46.88000 22.259
47.04000 13.217
47.20000 12.047
47.36000 16.042
47.52000 14.312
47.68000 15.209
47.84000 23.412
48.00000 21.025
48.16000 17.138
48.32000 18.129
48.48000 21.357
48.64000 14.295
48.80000 10.043
48.96000 11.194
49.12000 25.228
49.28000 16.125
49.44000 20.299
49.60000 16.050
49.76000 15.094
49.92000 13.372
50.08000 12.082
50.24000 11.129
50.40000 16.254
50.56000 16.113
50.72000 15.315
50.88000 12.133
51.04000 11.092
51.20000 23.195
51.36000 12.121
51.52000 18.227
51.68000 18.397
51.84000 12.022
52.00000 15.261
52.16000 15.370
52.32000 17.231
52.48000 20.244
52.64000 9.104
52.80000 14.262
52.96000 16.278
53.12000 15.338
53.28000 14.152
53.44000 16.159
53.60000 13.271
53.76000 15.138
53.92000 14.158
54.08000 9.088
54.24000 12.193
54.40000 12.231
54.56000 14.150
54.72000 17.244
54.88000 11.253
55.04000 17.328
55.20000 10.209
55.36000 15.964
55.52000 17.223
55.68000 7.120
55.84000 9.292
56.00000 13.283
56.16000 12.171
56.32000 23.219
56.48000 18.145
56.64000 12.113
56.80000 16.166
56.96000 12.022
57.12000 10.205
57.28000 16.330
57.44000 12.196
57.60000 9.124
57.76000 8.125
57.92000 8.071
58.08000 12.268
58.24000 12.081
58.40000 8.954
58.56000 13.257
58.72000 10.227
58.88000 7.046
59.04000 11.079
59.20000 15.059
59.36000 6.025
59.52000 8.198
59.68000 15.210
59.84000 13.281
60.00000 9.018
60.16000 14.257
60.32000 10.168
60.48000 10.172
60.64000 14.263
60.80000 9.079
60.96000 9.326
61.12000 9.115
61.28000 5.102
61.44000 7.007
61.60000 8.083
61.76000 16.179
61.92000 9.009
62.08000 6.084
62.24000 5.023
62.40000 8.009
62.56000 17.155
62.72000 5.025
62.88000 15.195
63.04000 8.068
63.20000 13.087
63.36000 14.105
63.52000 7.059
63.68000 12.140
63.84000 3.018
64.00000 6.081
64.16000 2.997
64.32000 9.054
64.48000 14.237
64.64000 11.164
64.80000 13.184
64.96000 9.140
65.00000 11.998

File: 01092025_BTO_omega_0_5_001_17_45-048_21-694.xy
20.00000 15.184
20.16000 14.208
20.32000 15.178
20.48000 18.191
20.64000 11.438
20.80000 17.176
20.96000 13.138
21.12000 22.227
21.28000 26.313
21.44000 12.159
21.60000 22.251
21.76000 11.126
21.92000 15.221
22.08000 32.427
22.24000 18.153
22.40000 21.252
22.56000 31.438
22.72000 17.336
22.88000 15.157
23.04000 20.342
23.20000 13.302
23.36000 17.328
23.52000 22.184
23.68000 17.328
23.84000 33.547
24.00000 22.380
24.16000 24.484
24.32000 28.622
24.48000 29.424
24.64000 24.211
24.80000 19.451
24.96000 30.465
25.12000 31.366
25.28000 31.534
25.44000 24.172
25.60000 30.673
25.76000 31.635
25.92000 40.786
26.08000 33.363
26.24000 41.771
26.40000 30.437
26.56000 50.462
26.72000 38.714
26.88000 43.437
27.04000 58.779
27.20000 35.386
27.36000 65.778
27.52000 52.913
27.68000 44.666
27.84000 43.745
28.00000 52.686
28.16000 52.988
28.32000 46.506
28.48000 46.424
28.64000 58.881
28.80000 47.090
28.96000 57.626
29.12000 47.593
29.28000 39.590
29.44000 54.572
29.60000 43.482
29.76000 36.700
29.92000 40.766
30.08000 38.684
30.24000 36.637
30.40000 35.313
30.56000 35.874
30.72000 21.269
30.88000 37.366
31.04000 24.404
31.20000 24.250
31.36000 27.343
31.52000 30.301
31.68000 26.236
31.84000 29.314
32.00000 22.308
32.16000 24.175
32.32000 16.303
32.48000 24.373
32.64000 15.241
32.80000 23.459
32.96000 17.215
33.12000 16.150
33.28000 12.255
33.44000 13.194
33.60000 12.029
33.76000 9.137
33.92000 22.293
34.08000 12.267
34.24000 15.327
34.40000 21.289
34.56000 7.106
34.72000 15.144
34.88000 16.357
35.04000 12.072
35.20000 10.298
35.36000 16.071
35.52000 13.162
35.68000 8.030
35.84000 16.242
36.00000 15.097
36.16000 15.295
36.32000 11.161
36.48000 16.283
36.64000 15.204
36.80000 16.231
36.96000 16.318
37.12000 23.406
37.28000 15.277
37.44000 18.268
37.60000 11.057
37.76000 19.211
37.92000 17.196
38.08000 18.300
38.24000 17.114
38.40000 17.110
38.56000 14.033
38.72000 9.001
38.88000 17.466
39.04000 15.156
39.20000 15.136
39.36000 13.148
39.52000 15.040
39.68000 18.301
39.84000 10.142
40.00000 21.134
40.16000 18.285
40.32000 16.194
40.48000 13.522
40.64000 22.221
40.80000 20.213
40.96000 15.142
41.12000 12.234
41.28000 24.416
41.44000 18.135
41.60000 18.121
41.76000 24.243
41.92000 21.251
42.08000 14.086
42.24000 20.366
42.40000 19.244
42.56000 21.507
42.72000 20.240
42.88000 16.179
43.04000 16.142
43.20000 13.300
43.36000 16.136
43.52000 15.161
43.68000 11.140
43.84000 17.121
44.00000 15.227
44.16000 21.247
44.32000 17.293
44.48000 19.322
44.64000 23.383
44.80000 17.327
44.96000 23.361
45.12000 15.159
45.28000 20.345
45.44000 26.400
45.60000 19.369
45.76000 20.281
45.92000 23.126
46.08000 18.323
46.24000 14.156
46.40000 19.163
46.56000 27.171
46.72000 26.312
46.88000 14.172
47.04000 13.172
47.20000 16.127
47.36000 14.204
47.52000 15.167
47.68000 17.107
47.84000 25.150
48.00000 14.052
48.16000 19.456
48.32000 19.271
48.48000 16.344
48.64000 19.368
48.80000 25.265
48.96000 14.246
49.12000 14.126
49.28000 15.201
49.44000 17.232
49.60000 18.086
49.76000 10.980
49.92000 16.187
50.08000 10.257
50.24000 11.231
50.40000 18.201
50.56000 13.068
50.72000 16.272
50.88000 12.250
51.04000 11.104
51.20000 12.281
51.36000 15.123
51.52000 11.173
51.68000 16.247
51.84000 17.127
52.00000 13.076
52.16000 15.241
52.32000 10.192
52.48000 9.074
52.64000 11.060
52.80000 12.120
52.96000 9.142
53.12000 12.317
53.28000 12.261
53.44000 6.969
53.60000 17.277
53.76000 16.194
53.92000 16.131
54.08000 8.216
54.24000 9.113
54.40000 15.118
54.56000 13.153
54.72000 16.293
54.88000 20.069
55.04000 9.154
55.20000 17.238
55.36000 16.168
55.52000 17.306
55.68000 16.322
55.84000 10.001
56.00000 9.088
56.16000 15.258
56.32000 12.248
56.48000 6.097
56.64000 6.078
56.80000 11.167
56.96000 19.141
57.12000 13.239
57.28000 11.049
57.44000 11.246
57.60000 10.178
57.76000 14.126
57.92000 7.052
58.08000 13.239
58.24000 15.192
58.40000 15.056
58.56000 8.075
58.72000 8.090
58.88000 8.170
59.04000 9.042
59.20000 7.995
59.36000 14.140
59.52000 8.233
59.68000 14.106
59.84000 9.062
60.00000 9.098
60.16000 5.183
60.32000 7.036
60.48000 7.119
60.64000 10.161
60.80000 7.107
60.96000 6.129
61.12000 7.124
61.28000 13.124
61.44000 7.032
61.60000 8.072
61.76000 9.126
61.92000 11.276
62.08000 8.142
62.24000 3.049
62.40000 6.006
62.56000 10.997
62.72000 6.021
62.88000 8.057
63.04000 5.073
63.20000 3.016
63.36000 6.063
63.52000 8.189
63.68000 10.207
63.84000 9.148
64.00000 4.981
64.16000 8.094
64.32000 3.055
64.48000 8.330
64.64000 10.162
64.80000 10.127
64.96000 14.150
65.00000 6.085