Folder: Master-Thesis/XRD/XRD/11-09-2025/XY Data (part 9)

File: 01092025_BTO_omega_1_001_42_33-786_16-271.xy
20.00000 18.199
20.16000 20.012
20.32000 25.488
20.48000 20.114
20.64000 15.045
20.80000 15.221
20.96000 18.336
21.12000 19.198
21.28000 18.372
21.44000 22.326
21.60000 22.409
21.76000 16.203
21.92000 21.173
22.08000 18.292
22.24000 14.166
22.40000 31.409
22.56000 27.347
22.72000 23.226
22.88000 17.203
23.04000 20.258
23.20000 18.352
23.36000 21.336
23.52000 17.140
23.68000 24.164
23.84000 27.420
24.00000 29.335
24.16000 27.490
24.32000 26.397
24.48000 26.279
24.64000 27.184
24.80000 27.293
24.96000 32.464
25.12000 34.085
25.28000 34.516
25.44000 43.439
25.60000 39.414
25.76000 48.278
25.92000 41.629
26.08000 50.661
26.24000 53.529
26.40000 41.948
26.56000 49.733
26.72000 44.437
26.88000 41.724
27.04000 46.629
27.20000 39.877
27.36000 54.703
27.52000 51.720
27.68000 53.935
27.84000 48.357
28.00000 58.826
28.16000 47.628
28.32000 59.637
28.48000 46.620
28.64000 67.806
28.80000 46.623
28.96000 43.318
29.12000 46.766
29.28000 42.558
29.44000 45.564
29.60000 50.666
29.76000 34.824
29.92000 42.525
30.08000 44.456
30.24000 36.489
30.40000 32.473
30.56000 29.313
30.72000 33.499
30.88000 41.347
31.04000 37.468
31.20000 26.489
31.36000 39.449
31.52000 31.372
31.68000 22.248
31.84000 23.247
32.00000 26.355
32.16000 28.454
32.32000 22.099
32.48000 25.121
32.64000 27.316
32.80000 21.204
32.96000 24.455
33.12000 10.086
33.28000 24.266
33.44000 14.134
33.60000 15.332
33.76000 13.291
33.92000 17.347
34.08000 14.244
34.24000 23.299
34.40000 17.257
34.56000 15.386
34.72000 11.086
34.88000 14.069
35.04000 14.107
35.20000 14.169
35.36000 17.104
35.52000 13.232
35.68000 15.174
35.84000 17.293
36.00000 17.112
36.16000 18.268
36.32000 11.124
36.48000 15.013
36.64000 14.094
36.80000 17.131
36.96000 17.221
37.12000 13.177
37.28000 12.109
37.44000 20.242
37.60000 15.155
37.76000 18.346
37.92000 20.356
38.08000 15.255
38.24000 24.271
38.40000 11.084
38.56000 18.281
38.72000 21.213
38.88000 15.309
39.04000 23.531
39.20000 28.377
39.36000 25.302
39.52000 23.214
39.68000 21.262
39.84000 22.321
40.00000 20.194
40.16000 24.456
40.32000 21.221
40.48000 23.179
40.64000 22.224
40.80000 12.033
40.96000 14.087
41.12000 31.558
41.28000 19.316
41.44000 19.299
41.60000 18.318
41.76000 25.372
41.92000 16.198
42.08000 21.267
42.24000 27.324
42.40000 24.240
42.56000 27.316
42.72000 29.326
42.88000 26.387
43.04000 33.369
43.20000 25.323
43.36000 22.363
43.52000 21.272
43.68000 18.095
43.84000 17.142
44.00000 19.177
44.16000 18.295
44.32000 24.264
44.48000 23.224
44.64000 23.240
44.80000 27.238
44.96000 15.082
45.12000 15.149
45.28000 21.091
45.44000 16.226
45.60000 22.374
45.76000 13.361
45.92000 23.439
46.08000 22.463
46.24000 21.226
46.40000 23.321
46.56000 14.204
46.72000 16.082
46.88000 20.088
47.04000 15.187
47.20000 13.030
47.36000 21.254
47.52000 12.242
47.68000 22.148
47.84000 15.212
48.00000 15.142
48.16000 17.174
48.32000 20.232
48.48000 18.140
48.64000 21.366
48.80000 14.096
48.96000 14.154
49.12000 18.201
49.28000 19.166
49.44000 19.458
49.60000 21.178
49.76000 12.097
49.92000 19.088
50.08000 22.121
50.24000 18.245
50.40000 10.161
50.56000 17.177
50.72000 11.060
50.88000 20.393
51.04000 14.053
51.20000 11.301
51.36000 23.563
51.52000 18.093
51.68000 12.419
51.84000 11.230
52.00000 10.196
52.16000 10.314
52.32000 12.047
52.48000 21.127
52.64000 11.107
52.80000 15.229
52.96000 22.245
53.12000 16.232
53.28000 10.075
53.44000 15.371
53.60000 18.176
53.76000 23.354
53.92000 18.312
54.08000 18.165
54.24000 14.179
54.40000 12.049
54.56000 13.227
54.72000 10.075
54.88000 16.224
55.04000 16.219
55.20000 14.153
55.36000 14.118
55.52000 18.136
55.68000 15.072
55.84000 13.166
56.00000 11.165
56.16000 14.214
56.32000 11.008
56.48000 14.140
56.64000 15.070
56.80000 13.102
56.96000 7.213
57.12000 11.147
57.28000 14.139
57.44000 19.407
57.60000 20.270
57.76000 13.157
57.92000 15.536
58.08000 7.189
58.24000 15.163
58.40000 16.077
58.56000 11.156
58.72000 11.130
58.88000 11.154
59.04000 11.403
59.20000 14.224
59.36000 7.070
59.52000 7.195
59.68000 14.141
59.84000 22.295
60.00000 13.283
60.16000 14.134
60.32000 15.265
60.48000 9.011
60.64000 9.032
60.80000 12.195
60.96000 15.309
61.12000 13.106
61.28000 10.133
61.44000 12.128
61.60000 10.184
61.76000 9.095
61.92000 15.370
62.08000 13.164
62.24000 9.173
62.40000 4.996
62.56000 5.002
62.72000 9.223
62.88000 6.181
63.04000 14.065
63.20000 9.085
63.36000 13.232
63.52000 12.172
63.68000 10.153
63.84000 8.947
64.00000 9.229
64.16000 10.085
64.32000 12.013
64.48000 9.088
64.64000 12.100
64.80000 9.192
64.96000 13.245
65.00000 11.155

File: 01092025_BTO_omega_1_001_44_-15-587_19-546.xy
20.00000 24.423
20.16000 17.234
20.32000 15.510
20.48000 21.195
20.64000 23.274
20.80000 14.190
20.96000 20.270
21.12000 19.362
21.28000 21.316
21.44000 14.259
21.60000 23.242
21.76000 19.177
21.92000 21.184
22.08000 19.403
22.24000 24.241
22.40000 14.333
22.56000 24.114
22.72000 19.210
22.88000 20.394
23.04000 21.389
23.20000 28.269
23.36000 27.138
23.52000 19.332
23.68000 36.459
23.84000 20.212
24.00000 19.283
24.16000 31.754
24.32000 30.275
24.48000 48.542
24.64000 31.344
24.80000 30.382
24.96000 31.595
25.12000 26.224
25.28000 27.208
25.44000 27.133
25.60000 27.326
25.76000 30.253
25.92000 40.494
26.08000 38.546
26.24000 41.636
26.40000 34.404
26.56000 48.562
26.72000 42.686
26.88000 44.832
27.04000 40.312
27.20000 53.686
27.36000 43.746
27.52000 47.472
27.68000 46.605
27.84000 37.650
28.00000 48.750
28.16000 37.287
28.32000 46.692
28.48000 43.449
28.64000 37.548
28.80000 41.816
28.96000 47.601
29.12000 49.714
29.28000 45.490
29.44000 33.227
29.60000 32.410
29.76000 22.152
29.92000 34.377
30.08000 38.593
30.24000 30.270
30.40000 22.521
30.56000 29.285
30.72000 32.346
30.88000 24.214
31.04000 30.315
31.20000 25.490
31.36000 24.262
31.52000 31.431
31.68000 30.396
31.84000 26.179
32.00000 27.223
32.16000 25.227
32.32000 20.256
32.48000 19.300
32.64000 22.337
32.80000 17.318
32.96000 14.139
33.12000 12.109
33.28000 26.251
33.44000 27.515
33.60000 11.209
33.76000 21.347
33.92000 14.316
34.08000 15.040
34.24000 11.295
34.40000 19.205
34.56000 17.231
34.72000 23.284
34.88000 22.228
35.04000 24.332
35.20000 14.120
35.36000 13.234
35.52000 18.192
35.68000 16.487
35.84000 7.077
36.00000 10.280
36.16000 12.221
36.32000 17.243
36.48000 19.286
36.64000 19.320
36.80000 18.232
36.96000 12.035
37.12000 17.017
37.28000 15.147
37.44000 12.112
37.60000 10.246
37.76000 22.294
37.92000 21.205
38.08000 21.370
38.24000 12.259
38.40000 24.405
38.56000 15.148
38.72000 20.384
38.88000 15.191
39.04000 17.248
39.20000 18.081
39.36000 15.063
39.52000 21.197
39.68000 23.415
39.84000 21.367
40.00000 25.397
40.16000 16.013
40.32000 18.175
40.48000 15.260
40.64000 22.490
40.80000 26.329
40.96000 17.178
41.12000 26.333
41.28000 18.198
41.44000 18.253
41.60000 19.160
41.76000 21.305
41.92000 25.238
42.08000 20.165
42.24000 23.262
42.40000 14.120
42.56000 17.262
42.72000 19.168
42.88000 20.251
43.04000 19.212
43.20000 12.114
43.36000 11.117
43.52000 25.152
43.68000 17.334
43.84000 20.217
44.00000 21.206
44.16000 17.325
44.32000 24.452
44.48000 16.190
44.64000 15.212
44.80000 10.075
44.96000 19.221
45.12000 17.429
45.28000 15.271
45.44000 9.021
45.60000 14.995
45.76000 19.417
45.92000 13.171
46.08000 12.218
46.24000 17.249
46.40000 20.294
46.56000 10.280
46.72000 13.215
46.88000 16.256
47.04000 27.244
47.20000 14.265
47.36000 17.277
47.52000 14.253
47.68000 13.036
47.84000 15.260
48.00000 20.249
48.16000 18.154
48.32000 13.228
48.48000 15.996
48.64000 14.335
48.80000 14.105
48.96000 15.320
49.12000 7.094
49.28000 14.290
49.44000 15.190
49.60000 17.106
49.76000 22.344
49.92000 17.275
50.08000 15.303
50.24000 11.246
50.40000 17.205
50.56000 10.092
50.72000 21.193
50.88000 11.177
51.04000 16.297
51.20000 15.314
51.36000 16.374
51.52000 16.158
51.68000 8.094
51.84000 13.062
52.00000 13.125
52.16000 9.148
52.32000 23.206
52.48000 16.218
52.64000 14.213
52.80000 13.092
52.96000 17.118
53.12000 14.069
53.28000 18.156
53.44000 17.163
53.60000 16.029
53.76000 17.415
53.92000 11.214
54.08000 15.068
54.24000 15.191
54.40000 11.256
54.56000 14.163
54.72000 15.219
54.88000 18.275
55.04000 15.160
55.20000 17.180
55.36000 17.174
55.52000 11.089
55.68000 14.284
55.84000 13.144
56.00000 16.336
56.16000 5.067
56.32000 11.224
56.48000 11.340
56.64000 8.073
56.80000 15.194
56.96000 12.007
57.12000 8.093
57.28000 13.132
57.44000 12.121
57.60000 11.090
57.76000 7.007
57.92000 12.257
58.08000 9.319
58.24000 16.234
58.40000 10.029
58.56000 18.085
58.72000 11.103
58.88000 11.222
59.04000 13.127
59.20000 11.012
59.36000 13.070
59.52000 5.024
59.68000 10.218
59.84000 10.240
60.00000 10.251
60.16000 6.074
60.32000 17.364
60.48000 13.241
60.64000 10.126
60.80000 11.274
60.96000 12.137
61.12000 7.155
61.28000 7.118
61.44000 7.135
61.60000 6.103
61.76000 11.124
61.92000 6.031
62.08000 6.040
62.24000 8.162
62.40000 13.407
62.56000 11.225
62.72000 10.218
62.88000 10.151
63.04000 6.167
63.20000 11.171
63.36000 10.246
63.52000 8.201
63.68000 4.019
63.84000 7.069
64.00000 6.152
64.16000 9.134
64.32000 9.268
64.48000 7.112
64.64000 10.120
64.80000 7.124
64.96000 12.089
65.00000 12.141

File: 01092025_BTO_omega_1_001_45_15-587_19-546.xy
20.00000 24.354
20.16000 14.376
20.32000 20.192
20.48000 12.098
20.64000 18.265
20.80000 26.452
20.96000 18.194
21.12000 21.326
21.28000 20.211
21.44000 29.506
21.60000 22.315
21.76000 18.097
21.92000 19.382
22.08000 22.347
22.24000 26.339
22.40000 24.252
22.56000 20.311
22.72000 22.217
22.88000 28.463
23.04000 23.436
23.20000 23.314
23.36000 22.073
23.52000 25.102
23.68000 30.284
23.84000 28.447
24.00000 35.425
24.16000 25.306
24.32000 24.199
24.48000 34.300
24.64000 33.634
24.80000 36.617
24.96000 18.196
25.12000 37.473
25.28000 26.340
25.44000 25.303
25.60000 37.369
25.76000 37.201
25.92000 47.836
26.08000 37.441
26.24000 49.594
26.40000 48.491
26.56000 45.537
26.72000 40.763
26.88000 54.433
27.04000 55.887
27.20000 44.684
27.36000 53.643
27.52000 38.341
27.68000 57.534
27.84000 58.776
28.00000 45.559
28.16000 53.724
28.32000 59.568
28.48000 45.394
28.64000 56.945
28.80000 40.600
28.96000 46.529
29.12000 35.215
29.28000 48.663
29.44000 38.514
29.60000 37.312
29.76000 38.456
29.92000 35.404
30.08000 36.381
30.24000 26.482
30.40000 35.498
30.56000 47.556
30.72000 34.400
30.88000 27.484
31.04000 28.757
31.20000 33.670
31.36000 25.384
31.52000 25.235
31.68000 31.276
31.84000 22.194
32.00000 25.353
32.16000 28.543
32.32000 21.459
32.48000 26.514
32.64000 26.201
32.80000 24.316
32.96000 22.032
33.12000 20.144
33.28000 17.125
33.44000 22.330
33.60000 17.138
33.76000 18.196
33.92000 28.238
34.08000 18.470
34.24000 15.291
34.40000 14.318
34.56000 19.315
34.72000 11.110
34.88000 11.121
35.04000 15.118
35.20000 12.191
35.36000 11.137
35.52000 21.163
35.68000 18.304
35.84000 17.221
36.00000 10.311
36.16000 15.349
36.32000 11.126
36.48000 18.402
36.64000 15.189
36.80000 11.150
36.96000 25.310
37.12000 14.174
37.28000 19.366
37.44000 23.307
37.60000 10.926
37.76000 16.155
37.92000 24.268
38.08000 18.227
38.24000 11.189
38.40000 9.134
38.56000 18.188
38.72000 15.251
38.88000 15.120
39.04000 26.316
39.20000 22.218
39.36000 14.128
39.52000 17.308
39.68000 16.265
39.84000 20.429
40.00000 19.145
40.16000 18.307
40.32000 15.152
40.48000 13.236
40.64000 15.223
40.80000 15.080
40.96000 26.068
41.12000 22.487
41.28000 17.254
41.44000 15.088
41.60000 20.245
41.76000 14.348
41.92000 20.157
42.08000 18.262
42.24000 19.272
42.40000 13.256
42.56000 14.215
42.72000 17.424
42.88000 23.256
43.04000 24.349
43.20000 15.125
43.36000 16.157
43.52000 28.260
43.68000 23.510
43.84000 18.250
44.00000 24.141
44.16000 20.087
44.32000 14.142
44.48000 18.337
44.64000 23.315
44.80000 28.434
44.96000 20.287
45.12000 13.152
45.28000 27.502
45.44000 12.115
45.60000 18.303
45.76000 15.279
45.92000 21.279
46.08000 16.358
46.24000 28.622
46.40000 15.367
46.56000 16.130
46.72000 15.352
46.88000 26.422
47.04000 21.408
47.20000 16.122
47.36000 14.294
47.52000 28.404
47.68000 23.297
47.84000 16.173
48.00000 20.317
48.16000 20.278
48.32000 22.158
48.48000 19.272
48.64000 11.117
48.80000 16.249
48.96000 14.229
49.12000 15.217
49.28000 13.139
49.44000 12.020
49.60000 13.184
49.76000 31.415
49.92000 17.350
50.08000 17.161
50.24000 19.349
50.40000 11.129
50.56000 17.223
50.72000 17.303
50.88000 16.224
51.04000 13.190
51.20000 11.015
51.36000 16.091
51.52000 20.328
51.68000 20.114
51.84000 18.207
52.00000 9.050
52.16000 24.263
52.32000 18.233
52.48000 10.128
52.64000 18.222
52.80000 17.276
52.96000 17.309
53.12000 15.129
53.28000 25.362
53.44000 16.130
53.60000 12.044
53.76000 20.294
53.92000 24.227
54.08000 8.165
54.24000 13.195
54.40000 13.052
54.56000 15.079
54.72000 14.306
54.88000 13.280
55.04000 14.165
55.20000 11.066
55.36000 13.029
55.52000 16.094
55.68000 13.230
55.84000 11.124
56.00000 21.336
56.16000 10.075
56.32000 10.049
56.48000 16.156
56.64000 11.166
56.80000 6.989
56.96000 13.183
57.12000 10.144
57.28000 19.095
57.44000 14.248
57.60000 4.089
57.76000 13.194
57.92000 16.123
58.08000 13.209
58.24000 14.262
58.40000 14.250
58.56000 16.241
58.72000 11.067
58.88000 6.066
59.04000 11.156
59.20000 12.261
59.36000 12.108
59.52000 11.151
59.68000 6.114
59.84000 12.179
60.00000 11.210
60.16000 10.145
60.32000 16.185
60.48000 12.033
60.64000 14.454
60.80000 12.188
60.96000 13.208
61.12000 8.126
61.28000 9.957
61.44000 10.308
61.60000 9.010
61.76000 10.109
61.92000 5.993
62.08000 9.218
62.24000 14.329
62.40000 11.188
62.56000 6.988
62.72000 12.145
62.88000 12.149
63.04000 5.095
63.20000 10.168
63.36000 13.215
63.52000 17.130
63.68000 8.063
63.84000 11.038
64.00000 6.096
64.16000 8.095
64.32000 12.095
64.48000 11.204
64.64000 11.220
64.80000 11.115
64.96000 10.196
65.00000 11.201

File: 01092025_BTO_omega_1_001_47_-45-048_21-694.xy
20.00000 14.138
20.16000 13.134
20.32000 12.093
20.48000 15.291
20.64000 15.130
20.80000 9.072
20.96000 9.062
21.12000 8.087
21.28000 4.997
21.44000 7.059
21.60000 17.327
21.76000 7.975
21.92000 6.080
22.08000 11.158
22.24000 6.998
22.40000 15.295
22.56000 10.089
22.72000 4.972
22.88000 4.140
23.04000 8.065
23.20000 7.068
23.36000 11.089
23.52000 3.087
23.68000 6.108
23.84000 4.077
24.00000 5.088
24.16000 17.272
24.32000 7.996
24.48000 9.032
24.64000 9.160
24.80000 8.043
24.96000 2.041
25.12000 8.243
25.28000 11.027
25.44000 7.015
25.60000 10.014
25.76000 10.049
25.92000 9.139
26.08000 7.099
26.24000 11.150
26.40000 11.047
26.56000 7.177
26.72000 7.022
26.88000 6.116
27.04000 2.040
27.20000 8.097
27.36000 6.089
27.52000 4.020
27.68000 6.000
27.84000 7.133
28.00000 5.075
28.16000 11.358
28.32000 6.119
28.48000 3.043
28.64000 7.040
28.80000 5.144
28.96000 6.111
29.12000 4.086
29.28000 6.025
29.44000 5.958
29.60000 9.159
29.76000 5.183
29.92000 4.015
30.08000 5.092
30.24000 3.032
30.40000 2.054
30.56000 4.152
30.72000 7.133
30.88000 6.145
31.04000 1.038
31.20000 5.025
31.36000 6.082
31.52000 0.986
31.68000 2.976
31.84000 5.152
32.00000 4.074
32.16000 3.003
32.32000 4.158
32.48000 6.212
32.64000 6.057
32.80000 4.068
32.96000 5.104
33.12000 3.024
33.28000 1.973
33.44000 5.023
33.60000 6.004
33.76000 3.062
33.92000 1.008
34.08000 6.185
34.24000 7.257
34.40000 5.980
34.56000 3.001
34.72000 4.028
34.88000 4.034
35.04000 1.026
35.20000 2.030
35.36000 6.131
35.52000 5.005
35.68000 7.077
35.84000 3.043
36.00000 6.127
36.16000 7.046
36.32000 5.011
36.48000 2.029
36.64000 4.028
36.80000 0.000
36.96000 4.067
37.12000 3.057
37.28000 2.049
37.44000 2.038
37.60000 3.078
37.76000 1.030
37.92000 3.043
38.08000 7.073
38.24000 1.025
38.40000 3.073
38.56000 6.054
38.72000 2.031
38.88000 3.042
39.04000 4.062
39.20000 0.982
39.36000 2.075
39.52000 2.011
39.68000 0.000
39.84000 3.971
40.00000 3.024
40.16000 3.031
40.32000 3.034
40.48000 3.034
40.64000 1.023
40.80000 7.179
40.96000 3.133
41.12000 4.069
41.28000 4.114
41.44000 3.126
41.60000 1.019
41.76000 3.027
41.92000 2.022
42.08000 2.040
42.24000 3.023
42.40000 4.132
42.56000 6.105
42.72000 3.025
42.88000 1.045
43.04000 4.007
43.20000 5.084
43.36000 2.030
43.52000 2.071
43.68000 3.050
43.84000 2.994
44.00000 6.138
44.16000 3.039
44.32000 1.032
44.48000 3.964
44.64000 5.136
44.80000 0.000
44.96000 3.009
45.12000 3.018
45.28000 0.992
45.44000 5.060
45.60000 0.977
45.76000 4.073
45.92000 0.000
46.08000 2.996
46.24000 3.048
46.40000 1.063
46.56000 2.991
46.72000 0.000
46.88000 4.079
47.04000 2.045
47.20000 0.000
47.36000 3.006
47.52000 2.000
47.68000 4.016
47.84000 4.022
48.00000 0.000
48.16000 0.000
48.32000 1.039
48.48000 0.000
48.64000 3.935
48.80000 2.029
48.96000 1.018
49.12000 1.051
49.28000 0.986
49.44000 0.000
49.60000 3.072
49.76000 5.072
49.92000 3.145
50.08000 4.112
50.24000 3.069
50.40000 4.026
50.56000 3.047
50.72000 5.013
50.88000 2.007
51.04000 5.130
51.20000 4.043
51.36000 6.008
51.52000 4.111
51.68000 4.022
51.84000 5.003
52.00000 3.987
52.16000 1.001
52.32000 8.921
52.48000 2.004
52.64000 1.996
52.80000 0.000
52.96000 4.073
53.12000 4.026
53.28000 8.169
53.44000 3.016
53.60000 5.084
53.76000 1.035
53.92000 1.990
54.08000 1.001
54.24000 4.049
54.40000 0.000
54.56000 6.046
54.72000 5.109
54.88000 6.073
55.04000 5.036
55.20000 8.099
55.36000 2.050
55.52000 1.025
55.68000 3.985
55.84000 1.010
56.00000 1.056
56.16000 6.080
56.32000 1.969
56.48000 5.012
56.64000 1.017
56.80000 2.039
56.96000 4.033
57.12000 4.059
57.28000 1.055
57.44000 2.969
57.60000 1.026
57.76000 1.004
57.92000 2.002
58.08000 2.995
58.24000 3.069
58.40000 1.992
58.56000 5.047
58.72000 5.145
58.88000 1.021
59.04000 0.995
59.20000 3.028
59.36000 2.035
59.52000 3.017
59.68000 3.047
59.84000 1.048
60.00000 2.008
60.16000 3.103
60.32000 3.023
60.48000 3.028
60.64000 2.004
60.80000 0.000
60.96000 3.129
61.12000 4.119
61.28000 1.022
61.44000 4.048
61.60000 4.025
61.76000 0.000
61.92000 2.071
62.08000 3.041
62.24000 0.000
62.40000 2.078
62.56000 3.003
62.72000 4.963
62.88000 1.016
63.04000 0.000
63.20000 1.055
63.36000 2.031
63.52000 1.013
63.68000 0.000
63.84000 2.021
64.00000 0.000
64.16000 1.019
64.32000 2.006
64.48000 3.006
64.64000 2.070
64.80000 1.970
64.96000 2.053
65.00000 3.017

File: 01092025_BTO_omega_1_001_48_5-563_24-373.xy
20.00000 14.276
20.16000 21.212
20.32000 18.108
20.48000 30.498
20.64000 26.263
20.80000 21.327
20.96000 16.284
21.12000 15.118
21.28000 19.511
21.44000 21.410
21.60000 15.093
21.76000 20.235
21.92000 19.474
22.08000 25.365
22.24000 21.255
22.40000 14.195
22.56000 29.452
22.72000 21.292
22.88000 31.439
23.04000 26.380
23.20000 18.291
23.36000 27.268
23.52000 29.262
23.68000 27.246
23.84000 30.355
24.00000 32.370
24.16000 26.425
24.32000 24.493
24.48000 24.218
24.64000 38.350
24.80000 24.697
24.96000 31.255
25.12000 30.389
25.28000 37.738
25.44000 35.398
25.60000 42.611
25.76000 39.248
25.92000 40.511
26.08000 30.444
26.24000 44.838
26.40000 38.506
26.56000 46.684
26.72000 41.302
26.88000 50.769
27.04000 42.306
27.20000 48.784
27.36000 51.531
27.52000 66.699
27.68000 39.569
27.84000 46.566
28.00000 49.724
28.16000 43.843
28.32000 48.662
28.48000 59.775
28.64000 51.541
28.80000 36.657
28.96000 51.793
29.12000 42.522
29.28000 50.618
29.44000 47.794
29.60000 42.664
29.76000 34.432
29.92000 44.697
30.08000 32.422
30.24000 28.315
30.40000 26.654
30.56000 30.260
30.72000 28.398
30.88000 41.298
31.04000 24.578
31.20000 29.496
31.36000 16.264
31.52000 35.328
31.68000 27.124
31.84000 24.327
32.00000 21.411
32.16000 19.212
32.32000 24.203
32.48000 20.406
32.64000 22.301
32.80000 14.207
32.96000 20.159
33.12000 13.032
33.28000 17.159
33.44000 15.302
33.60000 21.206
33.76000 17.203
33.92000 22.429
34.08000 16.256
34.24000 12.198
34.40000 19.246
34.56000 8.258
34.72000 20.293
34.88000 25.179
35.04000 17.278
35.20000 16.245
35.36000 12.171
35.52000 13.167
35.68000 16.415
35.84000 10.192
36.00000 14.271
36.16000 14.062
36.32000 18.235
36.48000 20.201
36.64000 18.469
36.80000 14.203
36.96000 12.030
37.12000 20.242
37.28000 20.200
37.44000 21.166
37.60000 19.349
37.76000 16.231
37.92000 20.328
38.08000 21.281
38.24000 24.418
38.40000 13.310
38.56000 10.156
38.72000 16.075
38.88000 9.150
39.04000 17.281
39.20000 14.252
39.36000 12.222
39.52000 11.024
39.68000 13.080
39.84000 17.103
40.00000 21.314
40.16000 17.354
40.32000 17.168
40.48000 14.352
40.64000 13.120
40.80000 22.212
40.96000 19.282
41.12000 14.121
41.28000 18.214
41.44000 12.143
41.60000 21.254
41.76000 19.221
41.92000 17.159
42.08000 16.441
42.24000 14.999
42.40000 13.143
42.56000 28.166
42.72000 15.166
42.88000 19.269
43.04000 19.174
43.20000 16.363
43.36000 21.038
43.52000 23.426
43.68000 14.094
43.84000 21.309
44.00000 23.299
44.16000 18.117
44.32000 19.381
44.48000 19.299
44.64000 21.377
44.80000 18.233
44.96000 18.312
45.12000 21.151
45.28000 16.180
45.44000 20.054
45.60000 18.248
45.76000 28.585
45.92000 14.239
46.08000 21.119
46.24000 21.348
46.40000 34.333
46.56000 23.225
46.72000 22.425
46.88000 17.242
47.04000 23.385
47.20000 18.194
47.36000 18.183
47.52000 22.220
47.68000 21.281
47.84000 21.348
48.00000 22.281
48.16000 27.382
48.32000 18.195
48.48000 18.167
48.64000 19.152
48.80000 19.416
48.96000 19.337
49.12000 16.994
49.28000 11.142
49.44000 21.335
49.60000 16.153
49.76000 15.149
49.92000 18.344
50.08000 19.337
50.24000 10.149
50.40000 13.995
50.56000 26.378
50.72000 18.244
50.88000 19.134
51.04000 7.011
51.20000 17.020
51.36000 8.256
51.52000 19.193
51.68000 19.304
51.84000 16.344
52.00000 12.146
52.16000 17.064
52.32000 19.255
52.48000 17.134
52.64000 12.122
52.80000 20.361
52.96000 13.256
53.12000 10.361
53.28000 13.174
53.44000 10.128
53.60000 15.285
53.76000 14.164
53.92000 15.092
54.08000 11.201
54.24000 15.231
54.40000 16.294
54.56000 17.255
54.72000 11.177
54.88000 14.278
55.04000 18.209
55.20000 19.296
55.36000 15.118
55.52000 7.091
55.68000 14.107
55.84000 15.339
56.00000 14.362
56.16000 8.029
56.32000 21.186
56.48000 8.116
56.64000 18.115
56.80000 13.078
56.96000 18.245
57.12000 15.144
57.28000 12.104
57.44000 15.423
57.60000 12.179
57.76000 19.169
57.92000 8.088
58.08000 10.100
58.24000 12.327
58.40000 11.074
58.56000 11.092
58.72000 5.066
58.88000 10.125
59.04000 17.206
59.20000 8.224
59.36000 11.104
59.52000 4.099
59.68000 14.185
59.84000 15.277
60.00000 11.127
60.16000 9.226
60.32000 11.051
60.48000 5.071
60.64000 14.969
60.80000 8.090
60.96000 14.178
61.12000 12.064
61.28000 9.133
61.44000 14.164
61.60000 8.096
61.76000 8.066
61.92000 10.114
62.08000 10.054
62.24000 9.135
62.40000 10.148
62.56000 8.077
62.72000 8.120
62.88000 7.114
63.04000 15.112
63.20000 15.242
63.36000 5.158
63.52000 6.013
63.68000 11.058
63.84000 6.029
64.00000 9.237
64.16000 9.085
64.32000 13.048
64.48000 9.125
64.64000 12.102
64.80000 9.073
64.96000 18.285
65.00000 9.221