Folder: Master-Thesis/XRD/XRD/11-09-2025/XY Data

File: 01092025_BTO_omega_0_5_001_01_12-500_0-000.xy
20.00000 11.997
20.16000 19.131
20.32000 11.169
20.48000 14.306
20.64000 14.459
20.80000 22.270
20.96000 17.210
21.12000 12.025
21.28000 21.257
21.44000 16.257
21.60000 14.244
21.76000 23.380
21.92000 21.299
22.08000 17.149
22.24000 18.213
22.40000 18.132
22.56000 15.307
22.72000 12.219
22.88000 23.432
23.04000 15.264
23.20000 16.196
23.36000 18.423
23.52000 13.189
23.68000 26.582
23.84000 8.123
24.00000 18.258
24.16000 15.117
24.32000 16.230
24.48000 27.349
24.64000 17.159
24.80000 14.393
24.96000 17.181
25.12000 20.292
25.28000 24.219
25.44000 30.249
25.60000 23.176
25.76000 38.632
25.92000 26.240
26.08000 19.447
26.24000 31.349
26.40000 34.502
26.56000 31.388
26.72000 32.434
26.88000 29.445
27.04000 41.432
27.20000 32.467
27.36000 37.585
27.52000 31.288
27.68000 36.533
27.84000 23.191
28.00000 39.646
28.16000 35.402
28.32000 46.634
28.48000 24.361
28.64000 34.321
28.80000 38.531
28.96000 21.372
29.12000 26.322
29.28000 17.242
29.44000 25.083
29.60000 29.579
29.76000 16.174
29.92000 26.380
30.08000 21.459
30.24000 14.256
30.40000 21.303
30.56000 27.354
30.72000 20.262
30.88000 15.143
31.04000 20.283
31.20000 22.192
31.36000 17.162
31.52000 19.251
31.68000 24.280
31.84000 16.146
32.00000 18.155
32.16000 14.202
32.32000 15.133
32.48000 17.186
32.64000 17.314
32.80000 19.146
32.96000 10.130
33.12000 10.273
33.28000 19.248
33.44000 15.469
33.60000 13.180
33.76000 12.125
33.92000 13.257
34.08000 12.195
34.24000 9.082
34.40000 9.074
34.56000 13.284
34.72000 10.207
34.88000 4.063
35.04000 8.216
35.20000 22.038
35.36000 9.057
35.52000 11.130
35.68000 6.040
35.84000 5.032
36.00000 11.335
36.16000 15.215
36.32000 10.234
36.48000 13.183
36.64000 11.093
36.80000 9.108
36.96000 8.056
37.12000 12.067
37.28000 9.012
37.44000 18.275
37.60000 13.163
37.76000 9.248
37.92000 12.165
38.08000 11.172
38.24000 9.125
38.40000 9.096
38.56000 12.091
38.72000 12.238
38.88000 15.241
39.04000 11.199
39.20000 7.136
39.36000 11.284
39.52000 16.086
39.68000 10.040
39.84000 13.353
40.00000 13.146
40.16000 16.416
40.32000 16.291
40.48000 7.105
40.64000 8.201
40.80000 12.146
40.96000 12.360
41.12000 16.074
41.28000 15.312
41.44000 13.130
41.60000 10.272
41.76000 11.128
41.92000 4.126
42.08000 12.225
42.24000 8.186
42.40000 12.120
42.56000 11.258
42.72000 10.269
42.88000 14.205
43.04000 13.032
43.20000 9.056
43.36000 13.078
43.52000 15.203
43.68000 9.042
43.84000 13.180
44.00000 10.064
44.16000 10.034
44.32000 15.263
44.48000 13.163
44.64000 8.225
44.80000 16.158
44.96000 11.177
45.12000 13.383
45.28000 8.218
45.44000 15.302
45.60000 12.188
45.76000 8.052
45.92000 7.101
46.08000 14.079
46.24000 12.201
46.40000 11.038
46.56000 11.056
46.72000 11.030
46.88000 14.131
47.04000 10.176
47.20000 11.224
47.36000 10.061
47.52000 8.147
47.68000 8.053
47.84000 6.139
48.00000 10.183
48.16000 9.116
48.32000 10.099
48.48000 7.146
48.64000 8.113
48.80000 11.185
48.96000 12.128
49.12000 6.092
49.28000 19.224
49.44000 14.136
49.60000 15.227
49.76000 3.999
49.92000 5.003
50.08000 12.305
50.24000 11.179
50.40000 6.051
50.56000 8.111
50.72000 5.982
50.88000 9.172
51.04000 12.244
51.20000 10.241
51.36000 17.038
51.52000 3.045
51.68000 10.138
51.84000 6.089
52.00000 9.149
52.16000 7.023
52.32000 12.260
52.48000 0.000
52.64000 8.042
52.80000 7.025
52.96000 7.247
53.12000 7.039
53.28000 10.117
53.44000 4.070
53.60000 11.255
53.76000 8.054
53.92000 6.159
54.08000 10.097
54.24000 7.267
54.40000 5.034
54.56000 6.157
54.72000 8.085
54.88000 7.032
55.04000 8.036
55.20000 5.993
55.36000 12.174
55.52000 3.976
55.68000 13.216
55.84000 8.012
56.00000 7.103
56.16000 5.092
56.32000 5.004
56.48000 9.038
56.64000 10.290
56.80000 8.989
56.96000 9.096
57.12000 8.056
57.28000 10.130
57.44000 3.007
57.60000 7.152
57.76000 7.147
57.92000 7.078
58.08000 11.134
58.24000 6.049
58.40000 9.069
58.56000 3.114
58.72000 12.120
58.88000 5.074
59.04000 9.140
59.20000 5.022
59.36000 6.053
59.52000 6.098
59.68000 3.049
59.84000 5.055
60.00000 2.018
60.16000 6.136
60.32000 7.152
60.48000 6.989
60.64000 3.021
60.80000 5.064
60.96000 6.034
61.12000 9.166
61.28000 4.072
61.44000 4.012
61.60000 4.066
61.76000 9.999
61.92000 5.974
62.08000 10.167
62.24000 3.001
62.40000 6.093
62.56000 7.211
62.72000 4.078
62.88000 4.102
63.04000 6.143
63.20000 4.018
63.36000 5.059
63.52000 4.969
63.68000 5.092
63.84000 7.173
64.00000 5.041
64.16000 6.071
64.32000 7.040
64.48000 6.962
64.64000 3.049
64.80000 4.987
64.96000 6.087
65.00000 3.991

File: 01092025_BTO_omega_0_5_001_03_37-500_0-000.xy
20.00000 14.192
20.16000 20.623
20.32000 9.040
20.48000 21.380
20.64000 8.983
20.80000 20.226
20.96000 18.307
21.12000 16.233
21.28000 17.329
21.44000 11.181
21.60000 13.220
21.76000 12.161
21.92000 21.278
22.08000 13.147
22.24000 11.101
22.40000 17.299
22.56000 5.989
22.72000 13.250
22.88000 9.036
23.04000 11.159
23.20000 18.233
23.36000 15.348
23.52000 13.084
23.68000 17.092
23.84000 21.338
24.00000 15.219
24.16000 17.244
24.32000 15.116
24.48000 21.248
24.64000 15.065
24.80000 18.117
24.96000 17.257
25.12000 20.321
25.28000 27.465
25.44000 21.304
25.60000 22.277
25.76000 21.284
25.92000 17.318
26.08000 19.185
26.24000 22.225
26.40000 21.258
26.56000 31.473
26.72000 25.144
26.88000 21.407
27.04000 23.328
27.20000 24.273
27.36000 24.517
27.52000 30.288
27.68000 29.510
27.84000 39.242
28.00000 28.376
28.16000 25.487
28.32000 28.533
28.48000 26.227
28.64000 26.293
28.80000 18.339
28.96000 21.162
29.12000 35.506
29.28000 30.205
29.44000 20.292
29.60000 21.213
29.76000 19.324
29.92000 19.238
30.08000 14.113
30.24000 25.299
30.40000 17.149
30.56000 17.385
30.72000 20.256
30.88000 24.387
31.04000 21.238
31.20000 20.447
31.36000 14.189
31.52000 16.149
31.68000 17.189
31.84000 12.182
32.00000 13.302
32.16000 13.178
32.32000 15.975
32.48000 10.077
32.64000 8.214
32.80000 12.210
32.96000 15.125
33.12000 11.144
33.28000 6.067
33.44000 3.026
33.60000 5.019
33.76000 14.285
33.92000 11.124
34.08000 12.073
34.24000 7.104
34.40000 14.000
34.56000 9.066
34.72000 7.088
34.88000 8.158
35.04000 12.126
35.20000 4.121
35.36000 12.032
35.52000 9.032
35.68000 4.135
35.84000 8.067
36.00000 2.996
36.16000 14.157
36.32000 10.149
36.48000 10.215
36.64000 3.962
36.80000 5.075
36.96000 9.072
37.12000 5.032
37.28000 10.132
37.44000 9.094
37.60000 5.057
37.76000 5.071
37.92000 8.106
38.08000 8.076
38.24000 11.130
38.40000 5.098
38.56000 8.165
38.72000 7.032
38.88000 6.947
39.04000 5.064
39.20000 2.004
39.36000 11.202
39.52000 9.164
39.68000 13.306
39.84000 12.169
40.00000 4.064
40.16000 5.088
40.32000 6.195
40.48000 6.013
40.64000 13.145
40.80000 12.081
40.96000 10.053
41.12000 10.143
41.28000 9.159
41.44000 13.078
41.60000 5.092
41.76000 9.024
41.92000 10.200
42.08000 3.140
42.24000 9.923
42.40000 3.002
42.56000 7.991
42.72000 7.002
42.88000 8.157
43.04000 7.099
43.20000 6.990
43.36000 8.158
43.52000 7.113
43.68000 10.211
43.84000 4.124
44.00000 6.037
44.16000 7.096
44.32000 12.142
44.48000 13.994
44.64000 11.263
44.80000 12.174
44.96000 8.979
45.12000 4.068
45.28000 15.149
45.44000 13.201
45.60000 8.174
45.76000 11.278
45.92000 12.230
46.08000 5.113
46.24000 6.177
46.40000 9.210
46.56000 15.220
46.72000 7.132
46.88000 6.140
47.04000 12.142
47.20000 8.238
47.36000 14.124
47.52000 10.198
47.68000 12.082
47.84000 4.051
48.00000 8.185
48.16000 11.290
48.32000 15.233
48.48000 4.985
48.64000 7.081
48.80000 7.098
48.96000 6.004
49.12000 7.081
49.28000 6.147
49.44000 9.090
49.60000 5.079
49.76000 5.069
49.92000 13.153
50.08000 6.049
50.24000 10.172
50.40000 6.035
50.56000 11.185
50.72000 8.119
50.88000 7.060
51.04000 9.147
51.20000 5.085
51.36000 10.946
51.52000 8.116
51.68000 10.255
51.84000 8.111
52.00000 7.162
52.16000 5.057
52.32000 6.048
52.48000 8.167
52.64000 9.160
52.80000 4.045
52.96000 6.052
53.12000 10.089
53.28000 6.128
53.44000 8.056
53.60000 8.083
53.76000 6.006
53.92000 8.071
54.08000 7.171
54.24000 5.050
54.40000 3.100
54.56000 7.094
54.72000 6.091
54.88000 9.110
55.04000 8.068
55.20000 5.127
55.36000 6.091
55.52000 4.027
55.68000 12.999
55.84000 3.137
56.00000 7.038
56.16000 7.125
56.32000 8.114
56.48000 5.088
56.64000 3.042
56.80000 3.065
56.96000 10.168
57.12000 5.074
57.28000 10.266
57.44000 8.100
57.60000 3.995
57.76000 6.163
57.92000 4.017
58.08000 7.064
58.24000 7.161
58.40000 9.017
58.56000 5.087
58.72000 5.065
58.88000 3.046
59.04000 4.006
59.20000 4.971
59.36000 7.064
59.52000 1.967
59.68000 6.140
59.84000 4.012
60.00000 2.982
60.16000 3.026
60.32000 0.978
60.48000 0.000
60.64000 4.064
60.80000 1.041
60.96000 5.055
61.12000 1.998
61.28000 3.024
61.44000 3.009
61.60000 5.141
61.76000 6.175
61.92000 6.961
62.08000 5.157
62.24000 6.047
62.40000 3.991
62.56000 2.968
62.72000 4.121
62.88000 2.088
63.04000 7.056
63.20000 5.028
63.36000 2.064
63.52000 3.013
63.68000 4.083
63.84000 2.026
64.00000 4.991
64.16000 1.008
64.32000 5.157
64.48000 5.082
64.64000 1.041
64.80000 2.033
64.96000 5.029
65.00000 6.079

File: 01092025_BTO_omega_0_5_001_04_50-000_0-000.xy
20.00000 14.212
20.16000 11.165
20.32000 10.168
20.48000 12.158
20.64000 13.169
20.80000 12.230
20.96000 10.183
21.12000 11.142
21.28000 18.226
21.44000 9.082
21.60000 10.230
21.76000 21.317
21.92000 19.236
22.08000 12.139
22.24000 13.032
22.40000 8.174
22.56000 11.132
22.72000 9.087
22.88000 13.173
23.04000 16.352
23.20000 15.138
23.36000 10.179
23.52000 11.175
23.68000 11.227
23.84000 11.167
24.00000 13.223
24.16000 12.032
24.32000 11.205
24.48000 10.106
24.64000 10.140
24.80000 6.124
24.96000 6.006
25.12000 10.232
25.28000 12.209
25.44000 12.227
25.60000 15.068
25.76000 12.264
25.92000 8.108
26.08000 10.188
26.24000 12.232
26.40000 12.283
26.56000 12.256
26.72000 11.335
26.88000 18.204
27.04000 16.523
27.20000 12.155
27.36000 8.070
27.52000 15.174
27.68000 14.250
27.84000 15.232
28.00000 20.173
28.16000 12.158
28.32000 13.246
28.48000 23.407
28.64000 12.107
28.80000 14.185
28.96000 16.284
29.12000 9.232
29.28000 9.188
29.44000 19.232
29.60000 9.161
29.76000 13.070
29.92000 11.150
30.08000 6.028
30.24000 13.235
30.40000 15.224
30.56000 7.082
30.72000 6.150
30.88000 8.064
31.04000 6.029
31.20000 8.249
31.36000 16.212
31.52000 9.143
31.68000 8.082
31.84000 4.065
32.00000 8.077
32.16000 9.210
32.32000 8.070
32.48000 8.156
32.64000 9.213
32.80000 8.155
32.96000 4.980
33.12000 6.108
33.28000 7.064
33.44000 5.059
33.60000 4.001
33.76000 8.084
33.92000 9.048
34.08000 8.105
34.24000 12.294
34.40000 5.997
34.56000 4.057
34.72000 7.078
34.88000 4.052
35.04000 4.070
35.20000 9.167
35.36000 7.178
35.52000 4.046
35.68000 3.039
35.84000 10.114
36.00000 3.987
36.16000 9.094
36.32000 5.161
36.48000 4.079
36.64000 13.315
36.80000 5.011
36.96000 3.133
37.12000 6.126
37.28000 4.982
37.44000 4.004
37.60000 7.192
37.76000 8.978
37.92000 4.050
38.08000 7.066
38.24000 3.038
38.40000 5.071
38.56000 5.075
38.72000 5.000
38.88000 5.038
39.04000 2.047
39.20000 2.998
39.36000 4.037
39.52000 10.121
39.68000 8.145
39.84000 4.953
40.00000 7.173
40.16000 3.086
40.32000 3.036
40.48000 3.022
40.64000 7.021
40.80000 5.085
40.96000 6.068
41.12000 2.992
41.28000 6.064
41.44000 5.044
41.60000 3.998
41.76000 4.038
41.92000 8.131
42.08000 3.012
42.24000 11.165
42.40000 3.973
42.56000 10.208
42.72000 6.019
42.88000 3.061
43.04000 5.094
43.20000 2.044
43.36000 4.054
43.52000 2.040
43.68000 4.125
43.84000 4.041
44.00000 7.031
44.16000 9.124
44.32000 2.991
44.48000 5.189
44.64000 3.075
44.80000 7.951
44.96000 8.144
45.12000 4.089
45.28000 2.059
45.44000 4.146
45.60000 1.986
45.76000 7.018
45.92000 5.137
46.08000 6.152
46.24000 5.060
46.40000 5.094
46.56000 5.051
46.72000 5.042
46.88000 4.030
47.04000 11.154
47.20000 8.208
47.36000 4.025
47.52000 6.180
47.68000 4.100
47.84000 6.046
48.00000 3.040
48.16000 7.084
48.32000 5.043
48.48000 6.983
48.64000 3.017
48.80000 5.099
48.96000 7.070
49.12000 4.963
49.28000 2.987
49.44000 8.156
49.60000 6.060
49.76000 1.048
49.92000 5.011
50.08000 4.080
50.24000 7.153
50.40000 6.090
50.56000 6.145
50.72000 5.040
50.88000 7.133
51.04000 2.051
51.20000 2.110
51.36000 0.992
51.52000 2.996
51.68000 3.054
51.84000 4.098
52.00000 3.037
52.16000 6.176
52.32000 6.104
52.48000 5.061
52.64000 8.060
52.80000 5.032
52.96000 5.095
53.12000 3.078
53.28000 2.072
53.44000 4.111
53.60000 0.993
53.76000 4.981
53.92000 5.138
54.08000 6.108
54.24000 9.061
54.40000 5.073
54.56000 3.000
54.72000 2.030
54.88000 4.092
55.04000 4.014
55.20000 6.166
55.36000 7.082
55.52000 4.096
55.68000 0.988
55.84000 3.010
56.00000 3.019
56.16000 3.126
56.32000 8.136
56.48000 1.984
56.64000 6.054
56.80000 3.074
56.96000 5.082
57.12000 1.001
57.28000 4.087
57.44000 7.977
57.60000 1.017
57.76000 0.981
57.92000 4.090
58.08000 1.994
58.24000 3.069
58.40000 5.142
58.56000 6.003
58.72000 1.011
58.88000 0.993
59.04000 3.063
59.20000 2.012
59.36000 3.054
59.52000 0.000
59.68000 2.987
59.84000 3.007
60.00000 4.020
60.16000 5.007
60.32000 2.081
60.48000 0.989
60.64000 0.984
60.80000 0.995
60.96000 3.084
61.12000 2.012
61.28000 5.097
61.44000 2.988
61.60000 1.980
61.76000 2.048
61.92000 6.087
62.08000 5.173
62.24000 4.096
62.40000 4.012
62.56000 6.094
62.72000 1.042
62.88000 6.034
63.04000 6.143
63.20000 3.061
63.36000 1.966
63.52000 1.037
63.68000 1.994
63.84000 1.040
64.00000 3.017
64.16000 2.044
64.32000 1.949
64.48000 4.103
64.64000 2.047
64.80000 1.998
64.96000 4.056
65.00000 3.047

File: 01092025_BTO_omega_0_5_001_06_-11-138_5-675.xy
20.00000 19.364
20.16000 19.137
20.32000 15.274
20.48000 20.255
20.64000 14.310
20.80000 12.044
20.96000 19.147
21.12000 26.177
21.28000 18.040
21.44000 27.480
21.60000 24.228
21.76000 27.216
21.92000 28.233
22.08000 27.325
22.24000 20.198
22.40000 31.388
22.56000 30.484
22.72000 23.330
22.88000 25.437
23.04000 20.153
23.20000 28.440
23.36000 20.409
23.52000 34.332
23.68000 41.631
23.84000 18.400
24.00000 25.386
24.16000 37.297
24.32000 23.139
24.48000 27.251
24.64000 35.159
24.80000 48.318
24.96000 21.293
25.12000 47.703
25.28000 43.571
25.44000 42.228
25.60000 48.665
25.76000 37.508
25.92000 46.686
26.08000 48.582
26.24000 37.484
26.40000 59.837
26.56000 52.796
26.72000 67.993
26.88000 55.671
27.04000 57.776
27.20000 55.617
27.36000 65.076
27.52000 54.944
27.68000 58.735
27.84000 66.918
28.00000 66.474
28.16000 60.805
28.32000 54.680
28.48000 57.063
28.64000 48.611
28.80000 55.446
28.96000 52.898
29.12000 68.695
29.28000 42.595
29.44000 42.327
29.60000 57.007
29.76000 50.063
29.92000 41.892
30.08000 37.641
30.24000 34.412
30.40000 42.319
30.56000 36.394
30.72000 37.567
30.88000 41.557
31.04000 33.349
31.20000 29.450
31.36000 40.664
31.52000 28.430
31.68000 25.081
31.84000 28.735
32.00000 26.527
32.16000 25.179
32.32000 28.563
32.48000 28.067
32.64000 21.349
32.80000 24.264
32.96000 20.166
33.12000 22.150
33.28000 19.161
33.44000 28.148
33.60000 32.532
33.76000 21.314
33.92000 26.237
34.08000 16.210
34.24000 25.430
34.40000 21.341
34.56000 18.159
34.72000 19.316
34.88000 25.155
35.04000 14.093
35.20000 15.039
35.36000 16.218
35.52000 16.122
35.68000 20.237
35.84000 18.248
36.00000 18.142
36.16000 14.250
36.32000 19.163
36.48000 16.190
36.64000 18.317
36.80000 28.393
36.96000 11.013
37.12000 19.164
37.28000 21.292
37.44000 19.060
37.60000 24.473
37.76000 28.318
37.92000 18.163
38.08000 26.316
38.24000 30.559
38.40000 29.411
38.56000 29.361
38.72000 19.329
38.88000 22.101
39.04000 24.460
39.20000 27.276
39.36000 23.022
39.52000 28.435
39.68000 18.393
39.84000 20.206
40.00000 19.283
40.16000 21.405
40.32000 16.213
40.48000 24.185
40.64000 24.518
40.80000 25.204
40.96000 17.127
41.12000 25.296
41.28000 28.284
41.44000 14.073
41.60000 19.322
41.76000 26.042
41.92000 24.502
42.08000 19.958
42.24000 19.090
42.40000 21.246
42.56000 16.163
42.72000 19.494
42.88000 24.341
43.04000 20.281
43.20000 21.284
43.36000 18.286
43.52000 15.216
43.68000 25.466
43.84000 19.350
44.00000 19.108
44.16000 29.340
44.32000 26.275
44.48000 25.448
44.64000 21.188
44.80000 25.288
44.96000 25.366
45.12000 16.143
45.28000 17.134
45.44000 22.102
45.60000 26.405
45.76000 26.447
45.92000 29.401
46.08000 28.509
46.24000 23.405
46.40000 26.468
46.56000 23.339
46.72000 13.190
46.88000 26.360
47.04000 19.207
47.20000 27.462
47.36000 16.432
47.52000 15.188
47.68000 22.213
47.84000 19.274
48.00000 24.581
48.16000 18.237
48.32000 15.234
48.48000 24.387
48.64000 21.239
48.80000 14.172
48.96000 20.970
49.12000 13.269
49.28000 20.314
49.44000 14.102
49.60000 14.112
49.76000 19.278
49.92000 16.257
50.08000 12.164
50.24000 26.446
50.40000 17.118
50.56000 18.194
50.72000 8.075
50.88000 14.156
51.04000 16.101
51.20000 12.065
51.36000 17.060
51.52000 11.162
51.68000 12.195
51.84000 17.202
52.00000 15.217
52.16000 9.135
52.32000 19.372
52.48000 18.155
52.64000 14.165
52.80000 12.175
52.96000 19.354
53.12000 12.148
53.28000 22.202
53.44000 19.112
53.60000 15.324
53.76000 12.151
53.92000 13.173
54.08000 14.225
54.24000 13.052
54.40000 7.172
54.56000 12.149
54.72000 13.288
54.88000 18.333
55.04000 10.145
55.20000 10.114
55.36000 19.276
55.52000 16.128
55.68000 9.186
55.84000 12.139
56.00000 10.229
56.16000 7.043
56.32000 13.223
56.48000 13.102
56.64000 10.154
56.80000 13.123
56.96000 10.144
57.12000 11.175
57.28000 11.991
57.44000 12.123
57.60000 10.162
57.76000 15.266
57.92000 10.137
58.08000 9.132
58.24000 13.254
58.40000 14.220
58.56000 13.338
58.72000 9.030
58.88000 9.135
59.04000 13.274
59.20000 11.099
59.36000 8.109
59.52000 13.964
59.68000 10.046
59.84000 8.123
60.00000 9.173
60.16000 12.076
60.32000 7.094
60.48000 8.997
60.64000 6.035
60.80000 7.005
60.96000 5.955
61.12000 6.114
61.28000 12.085
61.44000 11.184
61.60000 12.063
61.76000 11.190
61.92000 12.172
62.08000 14.267
62.24000 11.072
62.40000 6.042
62.56000 10.230
62.72000 10.117
62.88000 6.032
63.04000 7.130
63.20000 13.082
63.36000 5.957
63.52000 13.094
63.68000 10.021
63.84000 16.230
64.00000 10.096
64.16000 14.223
64.32000 9.195
64.48000 6.083
64.64000 7.103
64.80000 6.159
64.96000 10.033
65.00000 10.164

File: 01092025_BTO_omega_0_5_001_10_-22-275_11-350.xy
20.00000 12.219
20.16000 12.000
20.32000 22.368
20.48000 20.416
20.64000 23.350
20.80000 20.206
20.96000 15.108
21.12000 23.063
21.28000 24.410
21.44000 32.413
21.60000 22.300
21.76000 17.106
21.92000 18.399
22.08000 28.407
22.24000 29.349
22.40000 27.402
22.56000 26.229
22.72000 31.376
22.88000 21.262
23.04000 29.379
23.20000 24.169
23.36000 31.533
23.52000 24.344
23.68000 34.334
23.84000 34.384
24.00000 19.204
24.16000 27.352
24.32000 35.774
24.48000 30.495
24.64000 38.395
24.80000 30.223
24.96000 31.343
25.12000 39.424
25.28000 36.653
25.44000 33.392
25.60000 36.338
25.76000 52.986
25.92000 47.098
26.08000 45.198
26.24000 59.430
26.40000 48.537
26.56000 44.389
26.72000 54.617
26.88000 54.573
27.04000 58.633
27.20000 59.950
27.36000 52.499
27.52000 79.146
27.68000 61.835
27.84000 47.640
28.00000 53.813
28.16000 52.653
28.32000 61.676
28.48000 48.525
28.64000 48.565
28.80000 60.917
28.96000 38.742
29.12000 40.359
29.28000 46.585
29.44000 46.769
29.60000 41.704
29.76000 42.874
29.92000 29.321
30.08000 40.549
30.24000 33.221
30.40000 34.345
30.56000 34.481
30.72000 39.352
30.88000 33.587
31.04000 39.213
31.20000 40.651
31.36000 36.585
31.52000 32.391
31.68000 31.468
31.84000 43.481
32.00000 38.515
32.16000 35.425
32.32000 26.230
32.48000 27.336
32.64000 35.488
32.80000 29.215
32.96000 28.368
33.12000 21.367
33.28000 20.154
33.44000 12.202
33.60000 22.140
33.76000 18.107
33.92000 24.611
34.08000 14.136
34.24000 14.302
34.40000 12.182
34.56000 17.369
34.72000 23.188
34.88000 22.326
35.04000 21.105
35.20000 10.134
35.36000 19.279
35.52000 22.264
35.68000 21.230
35.84000 14.079
36.00000 22.319
36.16000 13.260
36.32000 16.149
36.48000 23.284
36.64000 19.117
36.80000 17.174
36.96000 21.274
37.12000 22.379
37.28000 14.422
37.44000 28.376
37.60000 21.173
37.76000 23.443
37.92000 14.129
38.08000 23.409
38.24000 22.427
38.40000 21.427
38.56000 17.195
38.72000 21.574
38.88000 10.074
39.04000 14.179
39.20000 20.117
39.36000 20.205
39.52000 23.507
39.68000 22.336
39.84000 26.107
40.00000 27.396
40.16000 16.284
40.32000 20.196
40.48000 11.124
40.64000 28.431
40.80000 25.267
40.96000 17.466
41.12000 32.571
41.28000 20.185
41.44000 17.189
41.60000 23.449
41.76000 28.328
41.92000 22.217
42.08000 25.317
42.24000 20.367
42.40000 26.329
42.56000 16.270
42.72000 14.165
42.88000 18.258
43.04000 22.193
43.20000 25.392
43.36000 23.215
43.52000 17.341
43.68000 23.208
43.84000 21.184
44.00000 18.267
44.16000 30.268
44.32000 20.268
44.48000 13.250
44.64000 27.332
44.80000 21.284
44.96000 19.173
45.12000 17.195
45.28000 19.180
45.44000 17.116
45.60000 21.206
45.76000 22.266
45.92000 20.252
46.08000 18.199
46.24000 32.505
46.40000 19.338
46.56000 19.303
46.72000 23.423
46.88000 16.049
47.04000 29.222
47.20000 15.192
47.36000 23.111
47.52000 17.209
47.68000 12.227
47.84000 21.401
48.00000 14.073
48.16000 15.374
48.32000 18.306
48.48000 19.285
48.64000 20.050
48.80000 18.137
48.96000 18.173
49.12000 18.159
49.28000 17.135
49.44000 13.141
49.60000 12.123
49.76000 19.191
49.92000 21.128
50.08000 18.222
50.24000 12.127
50.40000 16.122
50.56000 13.189
50.72000 12.998
50.88000 19.321
51.04000 21.305
51.20000 12.226
51.36000 12.279
51.52000 15.273
51.68000 8.934
51.84000 21.258
52.00000 13.010
52.16000 21.405
52.32000 22.402
52.48000 10.239
52.64000 12.210
52.80000 14.218
52.96000 14.143
53.12000 13.205
53.28000 13.138
53.44000 13.108
53.60000 11.166
53.76000 13.169
53.92000 9.267
54.08000 13.138
54.24000 11.166
54.40000 17.267
54.56000 10.130
54.72000 11.135
54.88000 8.155
55.04000 16.216
55.20000 12.116
55.36000 9.096
55.52000 11.118
55.68000 13.047
55.84000 5.040
56.00000 10.195
56.16000 12.191
56.32000 12.203
56.48000 15.094
56.64000 16.233
56.80000 15.198
56.96000 13.236
57.12000 12.161
57.28000 19.228
57.44000 16.251
57.60000 14.210
57.76000 18.265
57.92000 18.151
58.08000 14.212
58.24000 14.192
58.40000 17.149
58.56000 10.073
58.72000 6.094
58.88000 11.002
59.04000 11.151
59.20000 5.159
59.36000 7.187
59.52000 16.202
59.68000 15.261
59.84000 9.164
60.00000 8.164
60.16000 14.162
60.32000 5.166
60.48000 11.106
60.64000 18.168
60.80000 9.151
60.96000 7.118
61.12000 11.099
61.28000 11.003
61.44000 7.089
61.60000 7.112
61.76000 10.224
61.92000 8.079
62.08000 8.214
62.24000 8.159
62.40000 8.012
62.56000 5.986
62.72000 10.162
62.88000 12.135
63.04000 7.120
63.20000 5.045
63.36000 9.199
63.52000 9.169
63.68000 9.032
63.84000 9.053
64.00000 8.990
64.16000 11.090
64.32000 9.127
64.48000 11.213
64.64000 6.044
64.80000 4.011
64.96000 9.081
65.00000 10.008