Folder: Master-Thesis/XRD/XRD/11-09-2025/XY Data (part 6)

File: 01092025_BTO_omega_1_001_19_22-524_-10-847.xy
20.00000 31.456
20.16000 18.187
20.32000 17.260
20.48000 25.295
20.64000 24.323
20.80000 31.555
20.96000 29.282
21.12000 32.633
21.28000 29.323
21.44000 29.315
21.60000 28.248
21.76000 13.147
21.92000 13.262
22.08000 22.257
22.24000 21.463
22.40000 22.157
22.56000 18.209
22.72000 22.281
22.88000 15.130
23.04000 16.139
23.20000 22.380
23.36000 19.268
23.52000 12.978
23.68000 17.316
23.84000 16.128
24.00000 11.166
24.16000 18.100
24.32000 18.287
24.48000 9.016
24.64000 17.132
24.80000 22.374
24.96000 22.155
25.12000 7.112
25.28000 25.368
25.44000 13.248
25.60000 15.249
25.76000 9.190
25.92000 16.249
26.08000 9.148
26.24000 10.264
26.40000 5.041
26.56000 16.220
26.72000 15.053
26.88000 14.092
27.04000 6.079
27.20000 12.082
27.36000 12.098
27.52000 8.115
27.68000 12.163
27.84000 11.179
28.00000 9.187
28.16000 9.147
28.32000 13.161
28.48000 6.099
28.64000 10.191
28.80000 12.086
28.96000 10.156
29.12000 14.235
29.28000 9.146
29.44000 11.137
29.60000 8.102
29.76000 5.100
29.92000 15.103
30.08000 6.080
30.24000 5.012
30.40000 2.071
30.56000 8.068
30.72000 9.091
30.88000 6.026
31.04000 8.993
31.20000 4.066
31.36000 6.099
31.52000 3.088
31.68000 4.144
31.84000 7.155
32.00000 2.019
32.16000 4.151
32.32000 6.044
32.48000 5.985
32.64000 3.035
32.80000 9.158
32.96000 9.999
33.12000 6.037
33.28000 10.032
33.44000 11.181
33.60000 7.281
33.76000 2.996
33.92000 4.101
34.08000 10.242
34.24000 2.084
34.40000 10.149
34.56000 7.113
34.72000 3.074
34.88000 7.111
35.04000 4.047
35.20000 3.063
35.36000 3.013
35.52000 8.089
35.68000 4.065
35.84000 5.054
36.00000 6.117
36.16000 1.030
36.32000 7.109
36.48000 6.179
36.64000 2.001
36.80000 6.005
36.96000 1.988
37.12000 4.046
37.28000 3.075
37.44000 4.076
37.60000 7.152
37.76000 10.095
37.92000 5.072
38.08000 2.040
38.24000 3.005
38.40000 1.976
38.56000 3.064
38.72000 3.095
38.88000 4.035
39.04000 5.124
39.20000 4.174
39.36000 4.089
39.52000 3.097
39.68000 2.960
39.84000 5.971
40.00000 1.989
40.16000 1.016
40.32000 6.228
40.48000 5.009
40.64000 3.065
40.80000 3.089
40.96000 3.972
41.12000 3.070
41.28000 5.158
41.44000 9.084
41.60000 0.995
41.76000 4.133
41.92000 4.029
42.08000 0.994
42.24000 1.037
42.40000 6.035
42.56000 2.035
42.72000 5.133
42.88000 5.016
43.04000 7.121
43.20000 2.006
43.36000 2.016
43.52000 7.036
43.68000 5.022
43.84000 2.983
44.00000 0.000
44.16000 4.013
44.32000 3.013
44.48000 1.061
44.64000 0.987
44.80000 2.014
44.96000 6.041
45.12000 3.035
45.28000 2.099
45.44000 2.006
45.60000 6.081
45.76000 0.000
45.92000 3.059
46.08000 2.982
46.24000 5.966
46.40000 1.993
46.56000 2.003
46.72000 0.983
46.88000 1.021
47.04000 5.114
47.20000 1.023
47.36000 5.105
47.52000 4.081
47.68000 2.011
47.84000 0.000
48.00000 2.004
48.16000 3.068
48.32000 0.000
48.48000 2.017
48.64000 0.000
48.80000 0.000
48.96000 3.971
49.12000 0.000
49.28000 5.010
49.44000 3.009
49.60000 1.955
49.76000 2.062
49.92000 1.995
50.08000 2.008
50.24000 2.008
50.40000 3.100
50.56000 3.024
50.72000 0.995
50.88000 2.980
51.04000 0.985
51.20000 3.061
51.36000 4.033
51.52000 3.030
51.68000 2.037
51.84000 2.992
52.00000 3.112
52.16000 3.972
52.32000 1.979
52.48000 0.000
52.64000 3.020
52.80000 2.025
52.96000 3.055
53.12000 3.051
53.28000 0.995
53.44000 0.000
53.60000 0.986
53.76000 3.034
53.92000 0.999
54.08000 0.000
54.24000 0.998
54.40000 0.000
54.56000 0.982
54.72000 2.058
54.88000 0.995
55.04000 1.020
55.20000 1.944
55.36000 3.027
55.52000 1.012
55.68000 2.003
55.84000 0.000
56.00000 2.013
56.16000 1.001
56.32000 2.998
56.48000 2.008
56.64000 4.023
56.80000 0.000
56.96000 0.000
57.12000 1.017
57.28000 4.056
57.44000 0.000
57.60000 1.007
57.76000 1.003
57.92000 0.000
58.08000 1.034
58.24000 1.042
58.40000 0.000
58.56000 2.035
58.72000 1.013
58.88000 2.984
59.04000 0.987
59.20000 0.000
59.36000 0.000
59.52000 1.036
59.68000 0.978
59.84000 1.011
60.00000 2.977
60.16000 6.043
60.32000 1.989
60.48000 3.044
60.64000 3.029
60.80000 1.043
60.96000 1.018
61.12000 0.992
61.28000 0.000
61.44000 1.027
61.60000 2.015
61.76000 3.055
61.92000 0.000
62.08000 0.994
62.24000 0.979
62.40000 0.000
62.56000 0.000
62.72000 1.012
62.88000 2.011
63.04000 1.038
63.20000 1.984
63.36000 3.054
63.52000 1.034
63.68000 1.022
63.84000 1.008
64.00000 0.992
64.16000 0.000
64.32000 3.008
64.48000 0.000
64.64000 2.984
64.80000 1.071
64.96000 1.054
65.00000 0.000

File: 01092025_BTO_omega_1_001_20_-22-524_-10-847.xy
20.00000 12.237
20.16000 13.270
20.32000 11.183
20.48000 21.097
20.64000 22.400
20.80000 13.118
20.96000 14.449
21.12000 17.189
21.28000 21.200
21.44000 18.303
21.60000 10.085
21.76000 17.356
21.92000 15.201
22.08000 11.257
22.24000 11.242
22.40000 9.137
22.56000 24.325
22.72000 12.206
22.88000 20.318
23.04000 14.291
23.20000 11.122
23.36000 18.076
23.52000 9.149
23.68000 15.216
23.84000 14.164
24.00000 18.143
24.16000 16.164
24.32000 6.053
24.48000 11.204
24.64000 15.345
24.80000 14.114
24.96000 8.134
25.12000 10.167
25.28000 9.097
25.44000 9.187
25.60000 6.092
25.76000 10.044
25.92000 12.209
26.08000 13.176
26.24000 18.369
26.40000 9.051
26.56000 7.082
26.72000 13.018
26.88000 10.139
27.04000 14.152
27.20000 11.154
27.36000 4.029
27.52000 7.135
27.68000 6.999
27.84000 4.096
28.00000 8.082
28.16000 9.065
28.32000 12.279
28.48000 13.062
28.64000 13.187
28.80000 8.108
28.96000 12.043
29.12000 8.140
29.28000 3.981
29.44000 13.073
29.60000 11.100
29.76000 9.157
29.92000 11.247
30.08000 9.133
30.24000 11.127
30.40000 5.031
30.56000 7.168
30.72000 5.012
30.88000 7.212
31.04000 8.058
31.20000 4.020
31.36000 8.252
31.52000 5.110
31.68000 9.126
31.84000 5.119
32.00000 5.036
32.16000 6.045
32.32000 8.020
32.48000 5.191
32.64000 10.170
32.80000 6.067
32.96000 6.021
33.12000 8.985
33.28000 4.033
33.44000 7.014
33.60000 7.017
33.76000 2.027
33.92000 9.165
34.08000 10.247
34.24000 6.120
34.40000 2.011
34.56000 4.038
34.72000 3.046
34.88000 3.041
35.04000 6.045
35.20000 5.941
35.36000 3.037
35.52000 4.090
35.68000 3.103
35.84000 7.044
36.00000 8.141
36.16000 4.110
36.32000 2.032
36.48000 5.033
36.64000 1.992
36.80000 3.085
36.96000 6.092
37.12000 2.002
37.28000 5.113
37.44000 5.073
37.60000 3.125
37.76000 4.062
37.92000 1.042
38.08000 6.085
38.24000 4.079
38.40000 2.054
38.56000 3.007
38.72000 5.088
38.88000 4.142
39.04000 5.021
39.20000 13.196
39.36000 5.071
39.52000 5.048
39.68000 2.053
39.84000 7.887
40.00000 6.158
40.16000 3.077
40.32000 3.047
40.48000 3.009
40.64000 2.995
40.80000 2.003
40.96000 5.052
41.12000 6.058
41.28000 8.093
41.44000 3.074
41.60000 2.035
41.76000 4.106
41.92000 5.069
42.08000 4.115
42.24000 9.241
42.40000 4.060
42.56000 6.065
42.72000 4.073
42.88000 4.010
43.04000 3.120
43.20000 0.000
43.36000 6.044
43.52000 0.000
43.68000 6.028
43.84000 0.000
44.00000 3.019
44.16000 3.004
44.32000 3.076
44.48000 9.065
44.64000 0.998
44.80000 2.046
44.96000 2.018
45.12000 3.993
45.28000 5.029
45.44000 0.999
45.60000 0.999
45.76000 3.036
45.92000 1.013
46.08000 1.029
46.24000 4.001
46.40000 7.061
46.56000 4.076
46.72000 0.000
46.88000 3.058
47.04000 3.094
47.20000 3.080
47.36000 1.027
47.52000 2.032
47.68000 2.011
47.84000 0.982
48.00000 3.092
48.16000 0.998
48.32000 2.046
48.48000 0.000
48.64000 4.019
48.80000 3.976
48.96000 2.086
49.12000 1.985
49.28000 5.058
49.44000 2.022
49.60000 1.014
49.76000 0.993
49.92000 2.062
50.08000 0.000
50.24000 0.979
50.40000 3.036
50.56000 3.995
50.72000 1.981
50.88000 2.035
51.04000 1.968
51.20000 5.154
51.36000 4.021
51.52000 1.009
51.68000 2.111
51.84000 1.040
52.00000 3.077
52.16000 1.026
52.32000 2.990
52.48000 3.071
52.64000 0.000
52.80000 0.000
52.96000 0.000
53.12000 1.976
53.28000 0.000
53.44000 0.000
53.60000 3.956
53.76000 3.063
53.92000 0.000
54.08000 1.987
54.24000 0.000
54.40000 0.000
54.56000 3.038
54.72000 2.969
54.88000 4.052
55.04000 3.981
55.20000 1.020
55.36000 2.007
55.52000 2.037
55.68000 5.100
55.84000 0.995
56.00000 0.978
56.16000 1.063
56.32000 2.987
56.48000 1.004
56.64000 1.976
56.80000 1.009
56.96000 1.007
57.12000 6.049
57.28000 1.048
57.44000 0.000
57.60000 1.993
57.76000 1.995
57.92000 3.045
58.08000 2.041
58.24000 0.000
58.40000 1.015
58.56000 0.992
58.72000 0.000
58.88000 2.944
59.04000 2.019
59.20000 1.977
59.36000 0.000
59.52000 2.027
59.68000 1.015
59.84000 1.986
60.00000 3.013
60.16000 2.013
60.32000 0.979
60.48000 5.042
60.64000 3.031
60.80000 1.000
60.96000 1.007
61.12000 0.000
61.28000 1.993
61.44000 2.011
61.60000 1.016
61.76000 5.062
61.92000 1.024
62.08000 0.000
62.24000 4.085
62.40000 0.994
62.56000 3.010
62.72000 2.139
62.88000 2.041
63.04000 1.965
63.20000 0.000
63.36000 2.078
63.52000 1.029
63.68000 0.000
63.84000 3.066
64.00000 0.000
64.16000 1.026
64.32000 4.054
64.48000 1.003
64.64000 1.001
64.80000 2.970
64.96000 3.039
65.00000 3.039

File: 01092025_BTO_omega_1_001_21_7-794_-9-773.xy
20.00000 17.249
20.16000 8.971
20.32000 20.342
20.48000 13.983
20.64000 13.211
20.80000 14.080
20.96000 22.304
21.12000 17.132
21.28000 9.175
21.44000 13.131
21.60000 17.270
21.76000 18.065
21.92000 17.357
22.08000 8.228
22.24000 14.231
22.40000 11.164
22.56000 18.499
22.72000 13.137
22.88000 16.118
23.04000 17.195
23.20000 15.168
23.36000 17.189
23.52000 18.368
23.68000 10.115
23.84000 9.022
24.00000 9.075
24.16000 14.135
24.32000 13.278
24.48000 12.038
24.64000 12.022
24.80000 11.035
24.96000 18.257
25.12000 14.287
25.28000 10.152
25.44000 16.244
25.60000 12.102
25.76000 11.241
25.92000 12.164
26.08000 11.158
26.24000 10.115
26.40000 11.099
26.56000 9.263
26.72000 5.144
26.88000 14.224
27.04000 11.202
27.20000 8.085
27.36000 13.091
27.52000 18.257
27.68000 4.998
27.84000 7.046
28.00000 11.298
28.16000 9.076
28.32000 13.171
28.48000 14.208
28.64000 12.258
28.80000 10.119
28.96000 10.241
29.12000 8.107
29.28000 9.082
29.44000 6.111
29.60000 7.057
29.76000 6.123
29.92000 9.299
30.08000 13.198
30.24000 6.088
30.40000 5.059
30.56000 6.078
30.72000 13.191
30.88000 7.058
31.04000 7.153
31.20000 11.271
31.36000 5.992
31.52000 4.017
31.68000 7.146
31.84000 5.011
32.00000 6.153
32.16000 11.200
32.32000 8.037
32.48000 5.123
32.64000 5.173
32.80000 11.273
32.96000 5.062
33.12000 0.996
33.28000 8.088
33.44000 1.008
33.60000 8.091
33.76000 7.161
33.92000 7.162
34.08000 6.187
34.24000 5.115
34.40000 7.050
34.56000 7.175
34.72000 5.123
34.88000 5.089
35.04000 5.148
35.20000 4.000
35.36000 3.057
35.52000 6.023
35.68000 4.060
35.84000 6.998
36.00000 6.124
36.16000 6.136
36.32000 4.041
36.48000 6.118
36.64000 4.118
36.80000 6.063
36.96000 6.020
37.12000 7.063
37.28000 5.049
37.44000 5.106
37.60000 5.011
37.76000 4.133
37.92000 2.073
38.08000 1.966
38.24000 4.018
38.40000 3.069
38.56000 10.057
38.72000 6.982
38.88000 1.990
39.04000 3.028
39.20000 5.074
39.36000 5.028
39.52000 2.050
39.68000 3.070
39.84000 6.000
40.00000 5.999
40.16000 0.981
40.32000 1.985
40.48000 5.116
40.64000 1.023
40.80000 3.055
40.96000 3.109
41.12000 2.063
41.28000 3.050
41.44000 4.031
41.60000 2.068
41.76000 7.099
41.92000 4.019
42.08000 1.045
42.24000 7.091
42.40000 2.054
42.56000 0.000
42.72000 2.992
42.88000 4.089
43.04000 2.006
43.20000 3.052
43.36000 8.066
43.52000 0.000
43.68000 3.078
43.84000 1.009
44.00000 4.038
44.16000 1.995
44.32000 2.091
44.48000 2.059
44.64000 6.023
44.80000 9.082
44.96000 1.070
45.12000 1.000
45.28000 2.044
45.44000 2.014
45.60000 5.127
45.76000 3.059
45.92000 3.007
46.08000 5.034
46.24000 3.046
46.40000 3.036
46.56000 3.019
46.72000 0.000
46.88000 2.008
47.04000 1.055
47.20000 2.055
47.36000 3.028
47.52000 3.045
47.68000 1.045
47.84000 2.985
48.00000 2.014
48.16000 1.059
48.32000 1.000
48.48000 4.080
48.64000 3.021
48.80000 2.992
48.96000 0.969
49.12000 3.085
49.28000 0.995
49.44000 0.000
49.60000 4.043
49.76000 0.000
49.92000 0.993
50.08000 0.987
50.24000 5.080
50.40000 2.979
50.56000 3.013
50.72000 1.007
50.88000 1.984
51.04000 0.000
51.20000 1.994
51.36000 2.026
51.52000 1.037
51.68000 0.000
51.84000 2.015
52.00000 0.000
52.16000 0.000
52.32000 0.000
52.48000 2.015
52.64000 2.006
52.80000 2.040
52.96000 2.118
53.12000 2.975
53.28000 1.031
53.44000 2.019
53.60000 0.000
53.76000 3.019
53.92000 0.986
54.08000 2.007
54.24000 3.992
54.40000 3.008
54.56000 3.066
54.72000 1.030
54.88000 1.054
55.04000 3.034
55.20000 0.000
55.36000 4.042
55.52000 1.006
55.68000 2.033
55.84000 0.000
56.00000 0.000
56.16000 0.000
56.32000 6.082
56.48000 1.020
56.64000 0.000
56.80000 2.010
56.96000 2.991
57.12000 1.070
57.28000 1.000
57.44000 1.023
57.60000 2.032
57.76000 0.000
57.92000 1.013
58.08000 0.000
58.24000 0.984
58.40000 4.035
58.56000 2.991
58.72000 1.010
58.88000 0.000
59.04000 2.079
59.20000 3.017
59.36000 0.968
59.52000 3.010
59.68000 1.993
59.84000 0.995
60.00000 2.037
60.16000 2.063
60.32000 2.090
60.48000 1.971
60.64000 0.000
60.80000 2.032
60.96000 0.000
61.12000 1.034
61.28000 2.112
61.44000 0.993
61.60000 2.053
61.76000 3.014
61.92000 2.020
62.08000 0.000
62.24000 2.053
62.40000 1.009
62.56000 1.995
62.72000 0.000
62.88000 0.998
63.04000 2.059
63.20000 1.011
63.36000 0.000
63.52000 2.990
63.68000 1.985
63.84000 2.012
64.00000 1.011
64.16000 1.004
64.32000 0.991
64.48000 2.004
64.64000 0.000
64.80000 2.038
64.96000 0.992
65.00000 0.000

File: 01092025_BTO_omega_1_001_25_0-000_0-000.xy
20.00000 22.036
20.16000 15.116
20.32000 15.189
20.48000 24.106
20.64000 19.234
20.80000 28.465
20.96000 17.212
21.12000 17.267
21.28000 19.312
21.44000 15.261
21.60000 20.337
21.76000 18.128
21.92000 14.027
22.08000 25.246
22.24000 21.255
22.40000 20.337
22.56000 30.541
22.72000 14.245
22.88000 16.168
23.04000 17.069
23.20000 17.160
23.36000 21.121
23.52000 21.392
23.68000 21.394
23.84000 22.256
24.00000 22.304
24.16000 22.257
24.32000 25.344
24.48000 32.167
24.64000 22.301
24.80000 24.195
24.96000 23.216
25.12000 31.414
25.28000 42.560
25.44000 28.309
25.60000 23.267
25.76000 39.402
25.92000 24.413
26.08000 43.587
26.24000 40.784
26.40000 40.418
26.56000 32.371
26.72000 41.272
26.88000 48.429
27.04000 28.435
27.20000 36.520
27.36000 24.202
27.52000 37.346
27.68000 39.103
27.84000 25.467
28.00000 37.374
28.16000 35.606
28.32000 39.508
28.48000 41.501
28.64000 28.383
28.80000 33.543
28.96000 33.632
29.12000 34.353
29.28000 39.453
29.44000 25.427
29.60000 32.361
29.76000 26.370
29.92000 19.237
30.08000 29.303
30.24000 30.344
30.40000 26.523
30.56000 22.427
30.72000 22.441
30.88000 20.091
31.04000 14.236
31.20000 20.309
31.36000 17.287
31.52000 21.354
31.68000 22.230
31.84000 25.439
32.00000 10.122
32.16000 24.185
32.32000 16.289
32.48000 29.592
32.64000 22.278
32.80000 15.215
32.96000 14.063
33.12000 13.205
33.28000 8.127
33.44000 16.132
33.60000 15.921
33.76000 13.065
33.92000 14.170
34.08000 17.166
34.24000 9.050
34.40000 13.125
34.56000 12.361
34.72000 12.214
34.88000 12.183
35.04000 16.055
35.20000 13.131
35.36000 12.182
35.52000 15.215
35.68000 12.194
35.84000 15.348
36.00000 19.280
36.16000 13.139
36.32000 14.192
36.48000 14.159
36.64000 12.200
36.80000 10.255
36.96000 12.229
37.12000 18.345
37.28000 21.323
37.44000 5.107
37.60000 19.067
37.76000 11.901
37.92000 16.234
38.08000 14.293
38.24000 16.313
38.40000 15.297
38.56000 9.105
38.72000 11.227
38.88000 10.207
39.04000 14.125
39.20000 12.126
39.36000 20.395
39.52000 12.242
39.68000 9.130
39.84000 14.154
40.00000 15.128
40.16000 22.180
40.32000 15.068
40.48000 18.172
40.64000 7.145
40.80000 17.316
40.96000 10.274
41.12000 18.214
41.28000 12.189
41.44000 18.318
41.60000 16.519
41.76000 13.070
41.92000 20.305
42.08000 13.173
42.24000 14.270
42.40000 20.366
42.56000 16.330
42.72000 19.333
42.88000 21.384
43.04000 20.167
43.20000 7.038
43.36000 19.369
43.52000 15.179
43.68000 11.960
43.84000 19.335
44.00000 12.130
44.16000 10.116
44.32000 15.210
44.48000 16.191
44.64000 12.258
44.80000 16.113
44.96000 18.203
45.12000 17.159
45.28000 18.113
45.44000 10.287
45.60000 16.135
45.76000 21.267
45.92000 12.253
46.08000 21.180
46.24000 17.186
46.40000 17.287
46.56000 17.235
46.72000 16.171
46.88000 17.132
47.04000 17.171
47.20000 10.134
47.36000 13.085
47.52000 16.300
47.68000 9.170
47.84000 17.162
48.00000 12.152
48.16000 18.237
48.32000 6.964
48.48000 9.089
48.64000 20.261
48.80000 8.198
48.96000 13.157
49.12000 17.221
49.28000 10.156
49.44000 16.347
49.60000 15.095
49.76000 12.159
49.92000 9.175
50.08000 7.106
50.24000 11.198
50.40000 7.147
50.56000 11.272
50.72000 10.044
50.88000 13.225
51.04000 15.136
51.20000 17.188
51.36000 12.160
51.52000 7.040
51.68000 10.035
51.84000 16.185
52.00000 7.112
52.16000 16.168
52.32000 8.180
52.48000 11.179
52.64000 11.283
52.80000 9.287
52.96000 12.220
53.12000 16.221
53.28000 7.198
53.44000 15.147
53.60000 12.250
53.76000 18.200
53.92000 9.027
54.08000 15.986
54.24000 8.112
54.40000 13.254
54.56000 4.104
54.72000 9.147
54.88000 8.216
55.04000 12.105
55.20000 6.097
55.36000 11.115
55.52000 6.122
55.68000 10.071
55.84000 5.061
56.00000 16.547
56.16000 11.085
56.32000 13.083
56.48000 13.136
56.64000 15.224
56.80000 9.200
56.96000 5.014
57.12000 9.142
57.28000 8.090
57.44000 13.184
57.60000 11.188
57.76000 10.278
57.92000 9.254
58.08000 8.095
58.24000 5.094
58.40000 6.108
58.56000 7.060
58.72000 12.073
58.88000 8.043
59.04000 8.083
59.20000 8.066
59.36000 10.040
59.52000 9.133
59.68000 8.015
59.84000 14.279
60.00000 7.231
60.16000 11.144
60.32000 12.122
60.48000 6.085
60.64000 9.020
60.80000 7.054
60.96000 9.175
61.12000 4.102
61.28000 3.062
61.44000 11.254
61.60000 5.104
61.76000 6.126
61.92000 4.084
62.08000 7.095
62.24000 12.123
62.40000 9.122
62.56000 5.119
62.72000 8.164
62.88000 8.079
63.04000 8.093
63.20000 7.084
63.36000 3.997
63.52000 6.089
63.68000 12.261
63.84000 6.104
64.00000 9.166
64.16000 10.924
64.32000 4.034
64.48000 10.197
64.64000 5.035
64.80000 5.082
64.96000 4.059
65.00000 9.060

File: 01092025_BTO_omega_1_001_26_12-500_0-000.xy
20.00000 16.254
20.16000 21.284
20.32000 19.213
20.48000 18.088
20.64000 13.141
20.80000 21.331
20.96000 19.203
21.12000 12.148
21.28000 19.163
21.44000 13.151
21.60000 16.138
21.76000 20.278
21.92000 22.294
22.08000 11.201
22.24000 12.151
22.40000 16.234
22.56000 11.159
22.72000 16.230
22.88000 21.540
23.04000 24.541
23.20000 25.307
23.36000 24.337
23.52000 16.228
23.68000 19.200
23.84000 23.335
24.00000 22.454
24.16000 18.224
24.32000 30.195
24.48000 20.133
24.64000 19.249
24.80000 27.413
24.96000 27.467
25.12000 29.308
25.28000 34.502
25.44000 19.362
25.60000 41.314
25.76000 35.586
25.92000 36.390
26.08000 35.584
26.24000 45.675
26.40000 37.565
26.56000 39.329
26.72000 42.502
26.88000 25.294
27.04000 34.493
27.20000 31.649
27.36000 23.458
27.52000 46.579
27.68000 44.659
27.84000 35.214
28.00000 29.393
28.16000 38.389
28.32000 41.525
28.48000 38.322
28.64000 47.661
28.80000 42.370
28.96000 32.524
29.12000 36.343
29.28000 32.276
29.44000 35.391
29.60000 30.308
29.76000 36.049
29.92000 38.710
30.08000 34.525
30.24000 21.334
30.40000 18.317
30.56000 29.294
30.72000 17.122
30.88000 29.258
31.04000 19.288
31.20000 18.127
31.36000 23.235
31.52000 21.269
31.68000 14.186
31.84000 28.428
32.00000 20.426
32.16000 25.139
32.32000 36.497
32.48000 21.222
32.64000 24.454
32.80000 20.084
32.96000 13.160
33.12000 21.422
33.28000 12.031
33.44000 11.029
33.60000 13.187
33.76000 8.183
33.92000 23.422
34.08000 12.203
34.24000 15.293
34.40000 15.448
34.56000 11.136
34.72000 16.321
34.88000 8.097
35.04000 14.101
35.20000 10.278
35.36000 12.131
35.52000 6.982
35.68000 14.193
35.84000 12.217
36.00000 17.134
36.16000 9.192
36.32000 16.162
36.48000 21.201
36.64000 10.197
36.80000 10.262
36.96000 13.108
37.12000 3.960
37.28000 16.121
37.44000 21.503
37.60000 13.139
37.76000 12.160
37.92000 12.103
38.08000 15.155
38.24000 12.098
38.40000 9.088
38.56000 10.222
38.72000 10.033
38.88000 16.177
39.04000 17.349
39.20000 12.148
39.36000 20.378
39.52000 15.368
39.68000 18.176
39.84000 23.513
40.00000 15.056
40.16000 17.258
40.32000 12.046
40.48000 14.116
40.64000 5.134
40.80000 15.245
40.96000 12.222
41.12000 9.075
41.28000 12.193
41.44000 16.079
41.60000 18.196
41.76000 9.098
41.92000 10.020
42.08000 14.160
42.24000 13.238
42.40000 17.144
42.56000 17.426
42.72000 16.261
42.88000 12.254
43.04000 15.203
43.20000 11.274
43.36000 14.258
43.52000 12.091
43.68000 13.121
43.84000 14.140
44.00000 18.009
44.16000 18.321
44.32000 10.195
44.48000 22.444
44.64000 11.247
44.80000 15.340
44.96000 15.221
45.12000 20.283
45.28000 21.278
45.44000 7.177
45.60000 16.063
45.76000 17.237
45.92000 13.093
46.08000 17.243
46.24000 13.078
46.40000 21.240
46.56000 16.158
46.72000 25.245
46.88000 14.260
47.04000 16.230
47.20000 11.068
47.36000 16.266
47.52000 6.043
47.68000 6.046
47.84000 8.060
48.00000 15.181
48.16000 13.290
48.32000 16.253
48.48000 14.407
48.64000 6.111
48.80000 12.276
48.96000 9.119
49.12000 15.215
49.28000 9.270
49.44000 17.213
49.60000 17.160
49.76000 8.983
49.92000 21.380
50.08000 12.053
50.24000 13.175
50.40000 9.045
50.56000 8.225
50.72000 5.041
50.88000 15.207
51.04000 9.144
51.20000 8.110
51.36000 7.108
51.52000 13.090
51.68000 11.085
51.84000 23.466
52.00000 10.133
52.16000 11.133
52.32000 13.255
52.48000 6.054
52.64000 11.165
52.80000 12.047
52.96000 14.056
53.12000 15.168
53.28000 9.164
53.44000 10.174
53.60000 8.157
53.76000 11.176
53.92000 15.213
54.08000 11.995
54.24000 11.092
54.40000 12.050
54.56000 18.355
54.72000 9.133
54.88000 9.287
55.04000 8.039
55.20000 18.164
55.36000 11.125
55.52000 12.151
55.68000 10.186
55.84000 9.149
56.00000 13.181
56.16000 13.085
56.32000 12.031
56.48000 11.028
56.64000 7.160
56.80000 11.035
56.96000 12.193
57.12000 3.000
57.28000 7.097
57.44000 8.017
57.60000 13.265
57.76000 2.076
57.92000 2.065
58.08000 8.960
58.24000 5.186
58.40000 7.989
58.56000 6.062
58.72000 10.071
58.88000 8.217
59.04000 14.095
59.20000 7.008
59.36000 7.068
59.52000 7.036
59.68000 9.141
59.84000 9.131
60.00000 14.167
60.16000 10.147
60.32000 7.142
60.48000 6.908
60.64000 11.145
60.80000 8.244
60.96000 7.993
61.12000 10.190
61.28000 11.199
61.44000 9.055
61.60000 9.119
61.76000 6.038
61.92000 5.060
62.08000 8.008
62.24000 4.042
62.40000 7.021
62.56000 9.216
62.72000 6.098
62.88000 5.102
63.04000 14.117
63.20000 13.235
63.36000 8.210
63.52000 7.140
63.68000 9.153
63.84000 9.064
64.00000 9.121
64.16000 8.190
64.32000 5.035
64.48000 8.109
64.64000 6.029
64.80000 6.179
64.96000 6.090
65.00000 6.071