Folder: Master-Thesis/XRD/XRD/11-09-2025/XY Data (part 8)

File: 01092025_BTO_omega_1_001_36_-7-794_9-773.xy
20.00000 26.466
20.16000 24.359
20.32000 26.365
20.48000 19.427
20.64000 19.277
20.80000 22.356
20.96000 22.296
21.12000 19.276
21.28000 18.242
21.44000 23.347
21.60000 23.406
21.76000 20.076
21.92000 20.293
22.08000 23.026
22.24000 15.315
22.40000 28.435
22.56000 24.262
22.72000 24.263
22.88000 20.261
23.04000 19.161
23.20000 17.349
23.36000 26.421
23.52000 30.324
23.68000 26.273
23.84000 31.356
24.00000 25.403
24.16000 26.537
24.32000 26.278
24.48000 25.332
24.64000 35.506
24.80000 42.635
24.96000 34.595
25.12000 41.505
25.28000 34.567
25.44000 38.581
25.60000 28.198
25.76000 40.517
25.92000 49.401
26.08000 43.495
26.24000 50.340
26.40000 30.499
26.56000 33.523
26.72000 31.422
26.88000 65.886
27.04000 50.460
27.20000 50.590
27.36000 47.664
27.52000 46.498
27.68000 43.563
27.84000 51.993
28.00000 39.553
28.16000 31.508
28.32000 43.475
28.48000 44.726
28.64000 40.489
28.80000 45.622
28.96000 44.675
29.12000 47.554
29.28000 36.191
29.44000 46.784
29.60000 34.495
29.76000 36.332
29.92000 34.447
30.08000 29.142
30.24000 33.388
30.40000 31.425
30.56000 41.595
30.72000 24.322
30.88000 36.509
31.04000 32.390
31.20000 29.486
31.36000 27.343
31.52000 28.238
31.68000 29.362
31.84000 21.136
32.00000 31.340
32.16000 16.295
32.32000 23.268
32.48000 22.205
32.64000 26.476
32.80000 18.184
32.96000 28.400
33.12000 18.255
33.28000 11.165
33.44000 15.166
33.60000 16.197
33.76000 13.122
33.92000 16.179
34.08000 15.318
34.24000 17.970
34.40000 11.284
34.56000 12.060
34.72000 13.271
34.88000 14.123
35.04000 17.404
35.20000 22.450
35.36000 10.166
35.52000 21.374
35.68000 10.131
35.84000 21.337
36.00000 5.030
36.16000 16.222
36.32000 18.168
36.48000 11.102
36.64000 14.160
36.80000 18.270
36.96000 20.247
37.12000 13.007
37.28000 19.300
37.44000 11.201
37.60000 26.387
37.76000 13.179
37.92000 14.132
38.08000 18.141
38.24000 15.105
38.40000 24.394
38.56000 21.450
38.72000 19.145
38.88000 14.164
39.04000 16.125
39.20000 16.279
39.36000 22.331
39.52000 22.343
39.68000 17.259
39.84000 20.249
40.00000 19.161
40.16000 21.018
40.32000 19.141
40.48000 20.432
40.64000 14.034
40.80000 16.383
40.96000 21.323
41.12000 24.349
41.28000 20.324
41.44000 26.319
41.60000 22.355
41.76000 16.255
41.92000 16.203
42.08000 23.306
42.24000 20.464
42.40000 18.169
42.56000 15.266
42.72000 17.297
42.88000 17.147
43.04000 17.474
43.20000 13.271
43.36000 18.154
43.52000 18.345
43.68000 20.405
43.84000 16.376
44.00000 6.021
44.16000 10.049
44.32000 10.243
44.48000 12.109
44.64000 18.179
44.80000 18.184
44.96000 14.139
45.12000 16.247
45.28000 12.094
45.44000 13.195
45.60000 14.077
45.76000 14.151
45.92000 16.265
46.08000 17.148
46.24000 19.384
46.40000 13.100
46.56000 21.471
46.72000 25.371
46.88000 19.263
47.04000 16.007
47.20000 18.318
47.36000 17.249
47.52000 12.221
47.68000 14.123
47.84000 9.093
48.00000 20.257
48.16000 16.279
48.32000 15.311
48.48000 11.966
48.64000 17.148
48.80000 20.364
48.96000 16.382
49.12000 19.133
49.28000 17.337
49.44000 15.186
49.60000 14.097
49.76000 19.217
49.92000 21.226
50.08000 16.363
50.24000 13.311
50.40000 14.139
50.56000 9.117
50.72000 14.157
50.88000 12.189
51.04000 15.180
51.20000 12.196
51.36000 17.052
51.52000 15.347
51.68000 20.158
51.84000 12.143
52.00000 11.258
52.16000 12.201
52.32000 15.187
52.48000 12.191
52.64000 12.127
52.80000 17.277
52.96000 17.179
53.12000 8.062
53.28000 16.279
53.44000 15.113
53.60000 17.207
53.76000 10.123
53.92000 16.105
54.08000 9.030
54.24000 11.116
54.40000 7.132
54.56000 13.200
54.72000 7.156
54.88000 17.037
55.04000 12.026
55.20000 17.225
55.36000 15.299
55.52000 18.134
55.68000 15.313
55.84000 12.201
56.00000 9.218
56.16000 17.094
56.32000 6.177
56.48000 11.224
56.64000 11.112
56.80000 9.099
56.96000 12.087
57.12000 8.105
57.28000 14.273
57.44000 18.297
57.60000 21.364
57.76000 16.200
57.92000 7.117
58.08000 13.173
58.24000 8.096
58.40000 11.113
58.56000 10.135
58.72000 12.279
58.88000 5.074
59.04000 17.157
59.20000 8.067
59.36000 12.186
59.52000 12.211
59.68000 8.131
59.84000 7.045
60.00000 10.179
60.16000 10.152
60.32000 11.124
60.48000 10.146
60.64000 9.120
60.80000 16.157
60.96000 8.198
61.12000 8.029
61.28000 9.093
61.44000 10.261
61.60000 10.026
61.76000 13.125
61.92000 7.077
62.08000 4.976
62.24000 14.145
62.40000 8.092
62.56000 9.056
62.72000 13.286
62.88000 11.180
63.04000 12.067
63.20000 13.144
63.36000 5.107
63.52000 9.036
63.68000 6.059
63.84000 12.169
64.00000 7.050
64.16000 14.291
64.32000 8.190
64.48000 10.107
64.64000 12.186
64.80000 11.341
64.96000 5.040
65.00000 8.101

File: 01092025_BTO_omega_1_001_37_7-794_9-773.xy
20.00000 15.118
20.16000 18.425
20.32000 13.022
20.48000 24.093
20.64000 20.459
20.80000 10.260
20.96000 17.206
21.12000 24.082
21.28000 21.216
21.44000 22.263
21.60000 29.563
21.76000 26.273
21.92000 20.352
22.08000 17.027
22.24000 26.425
22.40000 23.218
22.56000 22.317
22.72000 16.135
22.88000 13.123
23.04000 24.131
23.20000 19.155
23.36000 19.155
23.52000 29.435
23.68000 29.498
23.84000 27.440
24.00000 28.348
24.16000 21.301
24.32000 28.483
24.48000 22.161
24.64000 22.185
24.80000 26.278
24.96000 32.307
25.12000 38.283
25.28000 30.321
25.44000 41.576
25.60000 31.341
25.76000 39.568
25.92000 45.447
26.08000 33.501
26.24000 48.552
26.40000 41.439
26.56000 41.577
26.72000 48.710
26.88000 51.061
27.04000 59.540
27.20000 39.578
27.36000 47.548
27.52000 49.654
27.68000 50.451
27.84000 39.426
28.00000 52.675
28.16000 53.715
28.32000 43.546
28.48000 44.592
28.64000 47.223
28.80000 39.359
28.96000 36.406
29.12000 41.523
29.28000 35.433
29.44000 45.624
29.60000 50.743
29.76000 31.522
29.92000 40.755
30.08000 34.323
30.24000 40.635
30.40000 49.848
30.56000 27.162
30.72000 28.198
30.88000 24.362
31.04000 31.403
31.20000 21.220
31.36000 28.388
31.52000 20.167
31.68000 28.439
31.84000 25.378
32.00000 19.517
32.16000 28.390
32.32000 23.256
32.48000 26.211
32.64000 22.066
32.80000 19.112
32.96000 23.403
33.12000 24.272
33.28000 20.096
33.44000 7.237
33.60000 12.093
33.76000 14.215
33.92000 13.159
34.08000 9.105
34.24000 16.249
34.40000 18.282
34.56000 17.195
34.72000 22.195
34.88000 13.027
35.04000 17.177
35.20000 13.202
35.36000 15.218
35.52000 18.189
35.68000 20.395
35.84000 22.381
36.00000 14.167
36.16000 8.153
36.32000 18.070
36.48000 21.283
36.64000 20.274
36.80000 18.249
36.96000 26.276
37.12000 11.307
37.28000 18.246
37.44000 9.117
37.60000 19.206
37.76000 13.186
37.92000 16.184
38.08000 19.249
38.24000 13.007
38.40000 15.272
38.56000 17.134
38.72000 16.157
38.88000 18.269
39.04000 14.070
39.20000 11.112
39.36000 14.089
39.52000 19.105
39.68000 15.240
39.84000 23.397
40.00000 14.353
40.16000 21.422
40.32000 16.973
40.48000 15.985
40.64000 29.475
40.80000 24.308
40.96000 22.394
41.12000 23.329
41.28000 15.315
41.44000 20.144
41.60000 11.233
41.76000 23.200
41.92000 22.509
42.08000 12.248
42.24000 27.363
42.40000 12.013
42.56000 19.120
42.72000 25.246
42.88000 13.153
43.04000 26.394
43.20000 24.262
43.36000 16.272
43.52000 22.289
43.68000 14.089
43.84000 17.310
44.00000 14.279
44.16000 22.109
44.32000 13.147
44.48000 18.419
44.64000 20.312
44.80000 15.285
44.96000 14.200
45.12000 13.165
45.28000 15.983
45.44000 20.242
45.60000 25.291
45.76000 17.118
45.92000 18.030
46.08000 24.345
46.24000 24.179
46.40000 16.208
46.56000 16.139
46.72000 10.127
46.88000 22.486
47.04000 18.166
47.20000 11.236
47.36000 21.317
47.52000 15.216
47.68000 12.252
47.84000 13.103
48.00000 24.312
48.16000 9.204
48.32000 18.070
48.48000 13.127
48.64000 17.437
48.80000 18.378
48.96000 23.420
49.12000 18.440
49.28000 11.307
49.44000 17.140
49.60000 19.175
49.76000 17.189
49.92000 23.232
50.08000 16.333
50.24000 16.165
50.40000 20.255
50.56000 20.058
50.72000 13.955
50.88000 15.219
51.04000 17.212
51.20000 13.036
51.36000 16.337
51.52000 15.226
51.68000 13.180
51.84000 13.207
52.00000 17.328
52.16000 8.117
52.32000 11.069
52.48000 17.236
52.64000 18.270
52.80000 17.182
52.96000 14.311
53.12000 16.256
53.28000 14.046
53.44000 22.386
53.60000 20.337
53.76000 17.304
53.92000 10.165
54.08000 13.123
54.24000 14.221
54.40000 14.216
54.56000 10.005
54.72000 22.317
54.88000 11.238
55.04000 10.110
55.20000 10.015
55.36000 8.994
55.52000 12.187
55.68000 16.280
55.84000 13.210
56.00000 10.253
56.16000 8.148
56.32000 11.170
56.48000 12.099
56.64000 19.145
56.80000 13.280
56.96000 18.169
57.12000 7.081
57.28000 16.235
57.44000 14.209
57.60000 15.127
57.76000 10.040
57.92000 17.313
58.08000 9.125
58.24000 10.170
58.40000 14.303
58.56000 12.210
58.72000 14.067
58.88000 14.288
59.04000 11.170
59.20000 8.058
59.36000 13.227
59.52000 12.086
59.68000 5.923
59.84000 9.152
60.00000 13.045
60.16000 8.143
60.32000 15.335
60.48000 9.127
60.64000 11.283
60.80000 12.200
60.96000 10.084
61.12000 8.980
61.28000 12.052
61.44000 7.129
61.60000 5.102
61.76000 9.113
61.92000 8.154
62.08000 9.165
62.24000 8.080
62.40000 10.985
62.56000 7.030
62.72000 20.211
62.88000 11.029
63.04000 7.106
63.20000 5.041
63.36000 9.180
63.52000 9.125
63.68000 7.075
63.84000 7.216
64.00000 10.187
64.16000 8.128
64.32000 12.270
64.48000 10.152
64.64000 8.110
64.80000 13.271
64.96000 7.006
65.00000 11.115

File: 01092025_BTO_omega_1_001_38_22-524_10-847.xy
20.00000 15.142
20.16000 19.204
20.32000 22.372
20.48000 20.249
20.64000 23.359
20.80000 15.323
20.96000 20.183
21.12000 16.141
21.28000 27.180
21.44000 21.423
21.60000 13.188
21.76000 19.353
21.92000 13.203
22.08000 17.216
22.24000 24.224
22.40000 23.224
22.56000 28.415
22.72000 19.140
22.88000 18.206
23.04000 25.280
23.20000 22.343
23.36000 26.108
23.52000 26.266
23.68000 24.560
23.84000 28.487
24.00000 24.247
24.16000 18.104
24.32000 30.549
24.48000 31.363
24.64000 32.462
24.80000 31.377
24.96000 28.338
25.12000 36.581
25.28000 35.489
25.44000 56.818
25.60000 37.279
25.76000 38.721
25.92000 36.684
26.08000 46.715
26.24000 43.539
26.40000 46.573
26.56000 40.841
26.72000 53.581
26.88000 36.437
27.04000 65.775
27.20000 46.379
27.36000 51.047
27.52000 51.737
27.68000 43.585
27.84000 57.605
28.00000 50.561
28.16000 56.631
28.32000 47.645
28.48000 42.362
28.64000 60.810
28.80000 54.653
28.96000 37.565
29.12000 42.588
29.28000 45.631
29.44000 52.681
29.60000 41.571
29.76000 33.601
29.92000 33.474
30.08000 32.331
30.24000 37.817
30.40000 28.427
30.56000 33.219
30.72000 34.516
30.88000 27.247
31.04000 25.424
31.20000 27.309
31.36000 17.282
31.52000 20.218
31.68000 37.463
31.84000 23.329
32.00000 23.308
32.16000 37.746
32.32000 24.165
32.48000 26.259
32.64000 17.209
32.80000 29.364
32.96000 12.123
33.12000 23.338
33.28000 18.344
33.44000 25.162
33.60000 18.128
33.76000 24.303
33.92000 10.161
34.08000 12.048
34.24000 16.133
34.40000 11.173
34.56000 14.089
34.72000 19.281
34.88000 25.390
35.04000 21.259
35.20000 18.253
35.36000 15.155
35.52000 10.166
35.68000 12.094
35.84000 15.204
36.00000 16.159
36.16000 19.314
36.32000 9.272
36.48000 17.310
36.64000 11.232
36.80000 13.284
36.96000 14.272
37.12000 18.227
37.28000 18.204
37.44000 17.120
37.60000 17.222
37.76000 15.056
37.92000 21.207
38.08000 15.157
38.24000 18.186
38.40000 18.405
38.56000 18.274
38.72000 20.198
38.88000 21.385
39.04000 25.364
39.20000 18.070
39.36000 23.429
39.52000 16.302
39.68000 16.268
39.84000 19.180
40.00000 21.413
40.16000 27.354
40.32000 24.320
40.48000 16.244
40.64000 22.345
40.80000 26.246
40.96000 9.166
41.12000 20.187
41.28000 22.514
41.44000 21.294
41.60000 14.039
41.76000 25.272
41.92000 31.474
42.08000 23.424
42.24000 18.197
42.40000 26.234
42.56000 23.089
42.72000 13.121
42.88000 13.147
43.04000 11.171
43.20000 19.059
43.36000 16.248
43.52000 10.313
43.68000 19.127
43.84000 19.020
44.00000 20.348
44.16000 26.363
44.32000 29.290
44.48000 9.133
44.64000 17.222
44.80000 27.622
44.96000 23.237
45.12000 16.058
45.28000 19.073
45.44000 17.137
45.60000 16.397
45.76000 21.232
45.92000 24.360
46.08000 26.394
46.24000 23.427
46.40000 19.112
46.56000 18.156
46.72000 22.422
46.88000 12.255
47.04000 23.225
47.20000 26.453
47.36000 21.360
47.52000 17.227
47.68000 16.362
47.84000 23.183
48.00000 22.077
48.16000 17.181
48.32000 18.160
48.48000 15.227
48.64000 11.152
48.80000 32.445
48.96000 21.369
49.12000 12.086
49.28000 11.097
49.44000 18.192
49.60000 17.239
49.76000 10.086
49.92000 22.439
50.08000 27.235
50.24000 17.258
50.40000 24.149
50.56000 16.130
50.72000 11.163
50.88000 20.218
51.04000 15.304
51.20000 15.205
51.36000 14.233
51.52000 14.329
51.68000 16.275
51.84000 20.416
52.00000 7.979
52.16000 22.252
52.32000 15.150
52.48000 12.144
52.64000 22.236
52.80000 15.254
52.96000 10.105
53.12000 17.184
53.28000 18.304
53.44000 13.303
53.60000 15.260
53.76000 14.288
53.92000 13.094
54.08000 15.108
54.24000 14.296
54.40000 11.106
54.56000 14.293
54.72000 9.129
54.88000 9.054
55.04000 12.161
55.20000 9.118
55.36000 7.094
55.52000 11.326
55.68000 15.151
55.84000 15.069
56.00000 12.176
56.16000 9.187
56.32000 19.310
56.48000 14.372
56.64000 13.160
56.80000 16.250
56.96000 14.303
57.12000 19.069
57.28000 13.199
57.44000 9.017
57.60000 17.246
57.76000 6.113
57.92000 8.987
58.08000 13.128
58.24000 15.268
58.40000 8.125
58.56000 13.094
58.72000 13.340
58.88000 6.022
59.04000 12.143
59.20000 15.006
59.36000 9.110
59.52000 11.107
59.68000 12.258
59.84000 17.182
60.00000 10.184
60.16000 15.204
60.32000 9.080
60.48000 11.152
60.64000 7.883
60.80000 8.141
60.96000 10.098
61.12000 9.087
61.28000 8.068
61.44000 11.988
61.60000 11.134
61.76000 10.157
61.92000 9.167
62.08000 8.053
62.24000 10.229
62.40000 8.113
62.56000 8.090
62.72000 9.207
62.88000 7.015
63.04000 10.108
63.20000 8.021
63.36000 14.124
63.52000 12.090
63.68000 13.291
63.84000 8.055
64.00000 11.240
64.16000 13.161
64.32000 11.185
64.48000 18.269
64.64000 7.022
64.80000 6.108
64.96000 9.041
65.00000 10.080

File: 01092025_BTO_omega_1_001_39_-22-524_10-847.xy
20.00000 19.097
20.16000 18.159
20.32000 14.991
20.48000 18.302
20.64000 22.371
20.80000 21.161
20.96000 18.224
21.12000 19.411
21.28000 18.245
21.44000 22.303
21.60000 22.310
21.76000 22.435
21.92000 19.325
22.08000 19.231
22.24000 16.968
22.40000 20.287
22.56000 21.177
22.72000 24.259
22.88000 17.211
23.04000 29.473
23.20000 23.539
23.36000 32.268
23.52000 22.256
23.68000 30.427
23.84000 23.153
24.00000 33.436
24.16000 30.686
24.32000 34.610
24.48000 35.559
24.64000 17.102
24.80000 23.252
24.96000 29.311
25.12000 24.457
25.28000 27.317
25.44000 28.442
25.60000 38.268
25.76000 38.646
25.92000 35.446
26.08000 37.299
26.24000 34.496
26.40000 42.382
26.56000 47.886
26.72000 45.460
26.88000 33.482
27.04000 42.555
27.20000 49.501
27.36000 30.225
27.52000 40.503
27.68000 26.384
27.84000 37.525
28.00000 51.901
28.16000 41.613
28.32000 42.664
28.48000 30.453
28.64000 43.524
28.80000 40.392
28.96000 35.388
29.12000 39.433
29.28000 38.336
29.44000 34.394
29.60000 37.600
29.76000 20.333
29.92000 35.222
30.08000 23.355
30.24000 29.366
30.40000 24.324
30.56000 29.459
30.72000 26.365
30.88000 20.417
31.04000 18.106
31.20000 36.497
31.36000 19.229
31.52000 21.230
31.68000 13.010
31.84000 27.176
32.00000 20.360
32.16000 25.294
32.32000 26.346
32.48000 19.437
32.64000 35.454
32.80000 14.125
32.96000 28.387
33.12000 21.265
33.28000 13.112
33.44000 18.578
33.60000 19.428
33.76000 16.201
33.92000 19.292
34.08000 22.393
34.24000 17.340
34.40000 14.166
34.56000 14.182
34.72000 11.195
34.88000 4.021
35.04000 11.120
35.20000 18.237
35.36000 16.345
35.52000 10.181
35.68000 18.587
35.84000 14.151
36.00000 17.254
36.16000 12.247
36.32000 16.104
36.48000 15.032
36.64000 19.398
36.80000 16.371
36.96000 17.081
37.12000 16.429
37.28000 17.159
37.44000 12.212
37.60000 16.200
37.76000 13.104
37.92000 11.081
38.08000 14.127
38.24000 15.334
38.40000 14.046
38.56000 17.346
38.72000 14.159
38.88000 14.168
39.04000 23.247
39.20000 19.111
39.36000 9.129
39.52000 27.281
39.68000 22.221
39.84000 18.312
40.00000 16.339
40.16000 18.209
40.32000 22.369
40.48000 15.242
40.64000 15.163
40.80000 13.127
40.96000 15.117
41.12000 27.372
41.28000 14.214
41.44000 18.282
41.60000 25.595
41.76000 19.263
41.92000 16.267
42.08000 15.135
42.24000 17.169
42.40000 11.078
42.56000 14.104
42.72000 15.249
42.88000 19.295
43.04000 19.127
43.20000 11.254
43.36000 21.172
43.52000 16.081
43.68000 11.175
43.84000 16.336
44.00000 13.343
44.16000 19.242
44.32000 13.259
44.48000 20.291
44.64000 11.232
44.80000 16.261
44.96000 14.123
45.12000 15.089
45.28000 10.039
45.44000 24.178
45.60000 11.152
45.76000 17.187
45.92000 11.141
46.08000 17.260
46.24000 18.284
46.40000 25.418
46.56000 15.234
46.72000 17.181
46.88000 16.162
47.04000 13.179
47.20000 15.262
47.36000 14.260
47.52000 13.394
47.68000 19.278
47.84000 15.132
48.00000 13.467
48.16000 15.123
48.32000 12.146
48.48000 16.176
48.64000 17.181
48.80000 20.142
48.96000 16.346
49.12000 13.010
49.28000 22.276
49.44000 12.291
49.60000 15.257
49.76000 14.115
49.92000 16.324
50.08000 19.260
50.24000 17.223
50.40000 16.266
50.56000 20.426
50.72000 9.104
50.88000 10.134
51.04000 18.278
51.20000 21.155
51.36000 17.252
51.52000 9.174
51.68000 10.073
51.84000 12.090
52.00000 16.145
52.16000 14.071
52.32000 10.228
52.48000 14.290
52.64000 20.250
52.80000 13.081
52.96000 19.103
53.12000 15.153
53.28000 10.212
53.44000 11.961
53.60000 10.222
53.76000 15.228
53.92000 11.072
54.08000 10.150
54.24000 12.240
54.40000 8.100
54.56000 13.240
54.72000 15.246
54.88000 8.262
55.04000 9.211
55.20000 9.000
55.36000 9.025
55.52000 12.016
55.68000 11.168
55.84000 10.181
56.00000 19.079
56.16000 10.052
56.32000 14.136
56.48000 9.204
56.64000 10.106
56.80000 17.105
56.96000 13.297
57.12000 11.209
57.28000 12.159
57.44000 13.066
57.60000 11.129
57.76000 15.050
57.92000 10.135
58.08000 12.149
58.24000 14.273
58.40000 8.094
58.56000 8.090
58.72000 7.063
58.88000 13.204
59.04000 15.133
59.20000 12.148
59.36000 13.179
59.52000 14.196
59.68000 6.114
59.84000 11.113
60.00000 11.085
60.16000 10.121
60.32000 6.037
60.48000 10.073
60.64000 9.053
60.80000 5.993
60.96000 10.989
61.12000 10.126
61.28000 9.173
61.44000 12.196
61.60000 14.095
61.76000 7.071
61.92000 5.997
62.08000 11.186
62.24000 7.090
62.40000 16.253
62.56000 11.201
62.72000 8.140
62.88000 7.001
63.04000 7.146
63.20000 10.130
63.36000 6.032
63.52000 7.157
63.68000 8.267
63.84000 2.013
64.00000 13.106
64.16000 8.079
64.32000 10.101
64.48000 7.127
64.64000 12.176
64.80000 11.189
64.96000 10.047
65.00000 9.144

File: 01092025_BTO_omega_1_001_40_2-782_12-187.xy
20.00000 14.219
20.16000 17.160
20.32000 17.088
20.48000 19.143
20.64000 20.094
20.80000 23.426
20.96000 30.324
21.12000 16.251
21.28000 16.376
21.44000 26.311
21.60000 24.198
21.76000 21.302
21.92000 28.268
22.08000 22.120
22.24000 32.399
22.40000 20.323
22.56000 33.601
22.72000 23.363
22.88000 19.193
23.04000 16.193
23.20000 31.413
23.36000 34.338
23.52000 23.467
23.68000 23.255
23.84000 26.465
24.00000 32.184
24.16000 23.398
24.32000 26.249
24.48000 31.407
24.64000 33.384
24.80000 39.541
24.96000 27.414
25.12000 30.566
25.28000 33.505
25.44000 42.664
25.60000 45.334
25.76000 37.448
25.92000 37.664
26.08000 32.486
26.24000 38.512
26.40000 29.368
26.56000 40.398
26.72000 39.370
26.88000 42.582
27.04000 52.419
27.20000 54.645
27.36000 47.494
27.52000 36.818
27.68000 48.645
27.84000 40.740
28.00000 43.565
28.16000 49.759
28.32000 38.691
28.48000 38.466
28.64000 39.493
28.80000 34.246
28.96000 36.546
29.12000 37.484
29.28000 54.594
29.44000 45.597
29.60000 25.325
29.76000 44.637
29.92000 39.554
30.08000 30.436
30.24000 41.378
30.40000 25.301
30.56000 29.531
30.72000 24.249
30.88000 20.223
31.04000 22.342
31.20000 23.193
31.36000 21.295
31.52000 16.188
31.68000 24.274
31.84000 18.326
32.00000 26.282
32.16000 14.941
32.32000 28.224
32.48000 32.446
32.64000 23.133
32.80000 27.584
32.96000 21.385
33.12000 18.446
33.28000 15.131
33.44000 20.228
33.60000 23.259
33.76000 15.118
33.92000 21.183
34.08000 11.967
34.24000 8.116
34.40000 11.064
34.56000 19.131
34.72000 8.232
34.88000 14.175
35.04000 14.164
35.20000 10.080
35.36000 13.087
35.52000 20.284
35.68000 18.318
35.84000 19.268
36.00000 11.100
36.16000 17.284
36.32000 18.382
36.48000 7.116
36.64000 15.125
36.80000 11.110
36.96000 17.205
37.12000 15.202
37.28000 16.232
37.44000 14.264
37.60000 15.285
37.76000 20.138
37.92000 14.294
38.08000 18.251
38.24000 16.206
38.40000 21.210
38.56000 16.184
38.72000 27.532
38.88000 16.281
39.04000 25.612
39.20000 15.179
39.36000 15.222
39.52000 17.272
39.68000 15.398
39.84000 21.132
40.00000 15.309
40.16000 14.173
40.32000 18.484
40.48000 15.161
40.64000 15.226
40.80000 22.322
40.96000 15.955
41.12000 13.206
41.28000 26.232
41.44000 21.371
41.60000 22.431
41.76000 12.016
41.92000 18.181
42.08000 22.194
42.24000 20.494
42.40000 14.121
42.56000 18.176
42.72000 21.427
42.88000 13.197
43.04000 25.472
43.20000 15.186
43.36000 13.110
43.52000 19.287
43.68000 25.214
43.84000 18.125
44.00000 16.313
44.16000 15.267
44.32000 19.098
44.48000 12.142
44.64000 14.420
44.80000 13.162
44.96000 16.202
45.12000 17.323
45.28000 15.021
45.44000 23.408
45.60000 15.227
45.76000 18.187
45.92000 22.359
46.08000 11.228
46.24000 20.395
46.40000 14.233
46.56000 27.457
46.72000 17.357
46.88000 19.330
47.04000 18.347
47.20000 20.170
47.36000 19.074
47.52000 16.171
47.68000 15.308
47.84000 15.096
48.00000 24.449
48.16000 19.133
48.32000 18.414
48.48000 18.209
48.64000 19.261
48.80000 12.270
48.96000 13.102
49.12000 16.139
49.28000 13.172
49.44000 11.075
49.60000 18.116
49.76000 11.189
49.92000 19.336
50.08000 18.297
50.24000 14.082
50.40000 13.224
50.56000 9.056
50.72000 16.336
50.88000 13.434
51.04000 17.158
51.20000 11.241
51.36000 9.081
51.52000 13.121
51.68000 10.092
51.84000 17.093
52.00000 11.172
52.16000 18.232
52.32000 25.296
52.48000 14.132
52.64000 12.134
52.80000 15.148
52.96000 17.216
53.12000 17.093
53.28000 18.175
53.44000 11.144
53.60000 10.174
53.76000 14.257
53.92000 18.156
54.08000 14.285
54.24000 10.289
54.40000 11.050
54.56000 14.252
54.72000 12.098
54.88000 16.272
55.04000 12.274
55.20000 17.240
55.36000 9.083
55.52000 12.212
55.68000 15.203
55.84000 9.056
56.00000 18.304
56.16000 11.122
56.32000 13.297
56.48000 14.297
56.64000 12.020
56.80000 14.031
56.96000 13.013
57.12000 12.117
57.28000 6.104
57.44000 15.127
57.60000 15.294
57.76000 14.260
57.92000 16.298
58.08000 16.147
58.24000 13.313
58.40000 10.167
58.56000 16.067
58.72000 13.226
58.88000 6.093
59.04000 9.112
59.20000 12.145
59.36000 19.264
59.52000 11.032
59.68000 3.081
59.84000 11.175
60.00000 15.175
60.16000 13.226
60.32000 7.114
60.48000 5.039
60.64000 9.194
60.80000 5.959
60.96000 12.155
61.12000 4.019
61.28000 10.175
61.44000 13.227
61.60000 7.118
61.76000 6.160
61.92000 11.125
62.08000 9.219
62.24000 10.220
62.40000 11.069
62.56000 9.089
62.72000 7.042
62.88000 13.091
63.04000 8.114
63.20000 11.119
63.36000 13.094
63.52000 12.123
63.68000 9.055
63.84000 12.147
64.00000 7.120
64.16000 11.185
64.32000 4.086
64.48000 7.175
64.64000 13.009
64.80000 4.047
64.96000 10.027
65.00000 6.948