Folder: Master-Thesis/XRD/XRD/11-09-2025/XY Data (part 3)

File: 01092025_BTO_omega_0_5_001_18_-44-550_22-700.xy
20.00000 12.370
20.16000 18.398
20.32000 11.085
20.48000 12.212
20.64000 7.077
20.80000 14.214
20.96000 14.360
21.12000 8.188
21.28000 12.013
21.44000 9.128
21.60000 9.069
21.76000 11.162
21.92000 5.037
22.08000 10.167
22.24000 6.014
22.40000 9.190
22.56000 12.180
22.72000 5.125
22.88000 10.159
23.04000 10.280
23.20000 7.034
23.36000 5.169
23.52000 9.166
23.68000 9.237
23.84000 2.034
24.00000 3.049
24.16000 6.151
24.32000 11.233
24.48000 10.151
24.64000 4.130
24.80000 8.152
24.96000 5.112
25.12000 6.183
25.28000 10.159
25.44000 9.033
25.60000 6.059
25.76000 10.023
25.92000 15.001
26.08000 11.237
26.24000 8.130
26.40000 11.243
26.56000 5.073
26.72000 15.148
26.88000 13.299
27.04000 7.073
27.20000 8.134
27.36000 4.052
27.52000 8.098
27.68000 5.105
27.84000 1.989
28.00000 5.059
28.16000 4.015
28.32000 8.040
28.48000 3.056
28.64000 7.081
28.80000 8.145
28.96000 4.161
29.12000 7.022
29.28000 6.096
29.44000 5.099
29.60000 5.082
29.76000 1.007
29.92000 5.052
30.08000 4.008
30.24000 8.164
30.40000 4.097
30.56000 3.975
30.72000 11.211
30.88000 4.980
31.04000 7.073
31.20000 2.058
31.36000 4.039
31.52000 6.995
31.68000 4.027
31.84000 6.039
32.00000 4.043
32.16000 8.126
32.32000 1.014
32.48000 7.150
32.64000 4.065
32.80000 0.000
32.96000 7.103
33.12000 5.062
33.28000 4.067
33.44000 2.003
33.60000 5.056
33.76000 5.969
33.92000 3.046
34.08000 3.022
34.24000 2.086
34.40000 7.017
34.56000 4.066
34.72000 6.115
34.88000 5.081
35.04000 7.036
35.20000 0.994
35.36000 2.015
35.52000 6.013
35.68000 3.023
35.84000 2.038
36.00000 2.050
36.16000 6.034
36.32000 4.131
36.48000 2.003
36.64000 3.003
36.80000 2.992
36.96000 8.139
37.12000 5.107
37.28000 0.997
37.44000 1.045
37.60000 8.029
37.76000 1.003
37.92000 5.065
38.08000 2.989
38.24000 3.069
38.40000 3.001
38.56000 6.056
38.72000 3.030
38.88000 5.136
39.04000 7.091
39.20000 5.131
39.36000 2.063
39.52000 2.043
39.68000 4.117
39.84000 4.021
40.00000 3.992
40.16000 2.004
40.32000 5.018
40.48000 3.000
40.64000 2.072
40.80000 0.000
40.96000 3.053
41.12000 4.012
41.28000 3.063
41.44000 5.043
41.60000 3.009
41.76000 4.191
41.92000 6.059
42.08000 3.038
42.24000 4.034
42.40000 4.117
42.56000 3.142
42.72000 2.033
42.88000 6.098
43.04000 4.016
43.20000 1.006
43.36000 4.072
43.52000 3.993
43.68000 4.033
43.84000 1.004
44.00000 0.992
44.16000 2.005
44.32000 6.097
44.48000 1.013
44.64000 2.979
44.80000 1.973
44.96000 2.980
45.12000 2.006
45.28000 3.061
45.44000 2.004
45.60000 7.100
45.76000 8.106
45.92000 3.041
46.08000 3.105
46.24000 6.096
46.40000 4.069
46.56000 0.975
46.72000 3.962
46.88000 4.022
47.04000 5.041
47.20000 2.981
47.36000 3.011
47.52000 5.029
47.68000 4.934
47.84000 5.028
48.00000 4.012
48.16000 5.068
48.32000 4.052
48.48000 3.013
48.64000 1.052
48.80000 3.965
48.96000 1.007
49.12000 2.015
49.28000 3.045
49.44000 1.998
49.60000 0.999
49.76000 4.104
49.92000 6.104
50.08000 4.029
50.24000 0.994
50.40000 2.956
50.56000 3.012
50.72000 4.047
50.88000 5.165
51.04000 4.100
51.20000 4.105
51.36000 5.147
51.52000 3.102
51.68000 4.005
51.84000 4.957
52.00000 5.055
52.16000 2.029
52.32000 3.034
52.48000 4.040
52.64000 4.016
52.80000 6.104
52.96000 5.990
53.12000 8.290
53.28000 4.980
53.44000 3.012
53.60000 5.101
53.76000 4.043
53.92000 2.985
54.08000 7.054
54.24000 6.157
54.40000 2.063
54.56000 4.077
54.72000 5.097
54.88000 3.075
55.04000 0.975
55.20000 0.997
55.36000 4.058
55.52000 1.023
55.68000 3.980
55.84000 7.099
56.00000 2.009
56.16000 3.002
56.32000 5.084
56.48000 3.059
56.64000 1.002
56.80000 5.026
56.96000 3.046
57.12000 4.028
57.28000 5.067
57.44000 4.104
57.60000 2.003
57.76000 1.998
57.92000 3.077
58.08000 1.126
58.24000 0.000
58.40000 1.992
58.56000 1.003
58.72000 0.000
58.88000 2.021
59.04000 5.022
59.20000 1.994
59.36000 3.060
59.52000 1.018
59.68000 3.006
59.84000 1.961
60.00000 0.993
60.16000 2.028
60.32000 4.069
60.48000 1.001
60.64000 4.042
60.80000 5.073
60.96000 4.979
61.12000 3.953
61.28000 3.032
61.44000 0.000
61.60000 5.095
61.76000 3.969
61.92000 2.954
62.08000 2.059
62.24000 2.035
62.40000 1.987
62.56000 2.052
62.72000 3.009
62.88000 0.985
63.04000 4.086
63.20000 3.060
63.36000 3.046
63.52000 3.001
63.68000 4.097
63.84000 2.057
64.00000 4.140
64.16000 3.016
64.32000 5.112
64.48000 7.096
64.64000 3.051
64.80000 0.992
64.96000 1.973
65.00000 3.047

File: 01092025_BTO_omega_0_5_001_21_-23-381_29-319.xy
20.00000 16.219
20.16000 20.229
20.32000 15.225
20.48000 17.224
20.64000 17.203
20.80000 14.158
20.96000 30.341
21.12000 25.064
21.28000 26.322
21.44000 18.126
21.60000 23.137
21.76000 23.263
21.92000 25.289
22.08000 22.324
22.24000 26.389
22.40000 29.368
22.56000 17.355
22.72000 20.143
22.88000 22.380
23.04000 30.242
23.20000 31.656
23.36000 37.472
23.52000 33.352
23.68000 40.415
23.84000 37.869
24.00000 43.740
24.16000 33.143
24.32000 52.791
24.48000 32.388
24.64000 40.786
24.80000 47.843
24.96000 36.434
25.12000 41.667
25.28000 39.663
25.44000 46.695
25.60000 62.749
25.76000 53.497
25.92000 51.737
26.08000 35.154
26.24000 68.061
26.40000 42.582
26.56000 54.572
26.72000 76.182
26.88000 57.014
27.04000 58.656
27.20000 50.586
27.36000 70.124
27.52000 61.687
27.68000 42.636
27.84000 46.680
28.00000 66.877
28.16000 51.599
28.32000 56.567
28.48000 51.750
28.64000 53.881
28.80000 48.648
28.96000 60.888
29.12000 59.627
29.28000 36.419
29.44000 57.876
29.60000 64.810
29.76000 48.564
29.92000 45.594
30.08000 28.401
30.24000 38.369
30.40000 40.702
30.56000 41.756
30.72000 40.188
30.88000 36.335
31.04000 34.451
31.20000 24.187
31.36000 35.290
31.52000 31.577
31.68000 29.435
31.84000 21.320
32.00000 25.330
32.16000 21.301
32.32000 28.322
32.48000 29.506
32.64000 32.364
32.80000 26.378
32.96000 17.107
33.12000 25.442
33.28000 18.349
33.44000 21.143
33.60000 27.417
33.76000 20.218
33.92000 24.349
34.08000 24.413
34.24000 23.269
34.40000 21.181
34.56000 16.030
34.72000 21.227
34.88000 21.356
35.04000 21.127
35.20000 24.310
35.36000 13.082
35.52000 16.304
35.68000 17.194
35.84000 14.479
36.00000 18.123
36.16000 18.318
36.32000 15.336
36.48000 23.379
36.64000 14.066
36.80000 16.129
36.96000 22.182
37.12000 16.192
37.28000 19.470
37.44000 25.139
37.60000 13.291
37.76000 17.293
37.92000 22.202
38.08000 16.197
38.24000 23.150
38.40000 13.242
38.56000 18.936
38.72000 17.342
38.88000 13.156
39.04000 17.105
39.20000 22.454
39.36000 26.274
39.52000 22.333
39.68000 27.318
39.84000 21.150
40.00000 21.211
40.16000 28.464
40.32000 25.287
40.48000 27.160
40.64000 17.372
40.80000 27.429
40.96000 9.166
41.12000 18.173
41.28000 26.285
41.44000 31.085
41.60000 33.579
41.76000 22.200
41.92000 16.304
42.08000 25.241
42.24000 26.465
42.40000 17.131
42.56000 25.462
42.72000 18.356
42.88000 25.425
43.04000 20.171
43.20000 21.240
43.36000 26.399
43.52000 24.195
43.68000 20.096
43.84000 18.407
44.00000 23.096
44.16000 26.392
44.32000 15.386
44.48000 20.246
44.64000 27.263
44.80000 18.173
44.96000 16.113
45.12000 20.265
45.28000 22.251
45.44000 19.286
45.60000 20.186
45.76000 26.476
45.92000 23.261
46.08000 19.099
46.24000 14.267
46.40000 12.239
46.56000 18.176
46.72000 23.318
46.88000 23.257
47.04000 17.158
47.20000 18.230
47.36000 19.213
47.52000 25.379
47.68000 20.176
47.84000 20.080
48.00000 19.179
48.16000 29.209
48.32000 20.345
48.48000 24.184
48.64000 21.132
48.80000 13.231
48.96000 18.255
49.12000 14.086
49.28000 23.388
49.44000 9.996
49.60000 22.345
49.76000 20.241
49.92000 15.229
50.08000 21.196
50.24000 19.373
50.40000 17.283
50.56000 13.288
50.72000 21.272
50.88000 14.104
51.04000 19.217
51.20000 22.299
51.36000 15.149
51.52000 17.294
51.68000 9.252
51.84000 16.060
52.00000 13.276
52.16000 16.041
52.32000 13.173
52.48000 19.181
52.64000 18.097
52.80000 17.229
52.96000 11.174
53.12000 18.062
53.28000 12.281
53.44000 12.144
53.60000 14.034
53.76000 18.340
53.92000 17.173
54.08000 19.354
54.24000 16.152
54.40000 22.169
54.56000 16.167
54.72000 12.093
54.88000 15.089
55.04000 10.114
55.20000 7.030
55.36000 15.337
55.52000 15.252
55.68000 18.321
55.84000 13.976
56.00000 17.338
56.16000 21.540
56.32000 6.055
56.48000 12.222
56.64000 15.255
56.80000 13.101
56.96000 14.100
57.12000 15.202
57.28000 16.115
57.44000 20.294
57.60000 15.281
57.76000 9.054
57.92000 15.420
58.08000 13.177
58.24000 15.224
58.40000 13.294
58.56000 13.207
58.72000 10.157
58.88000 14.181
59.04000 17.137
59.20000 10.185
59.36000 13.107
59.52000 16.265
59.68000 14.111
59.84000 7.083
60.00000 10.996
60.16000 16.383
60.32000 9.063
60.48000 15.175
60.64000 6.109
60.80000 12.149
60.96000 9.027
61.12000 9.263
61.28000 8.108
61.44000 10.161
61.60000 8.025
61.76000 7.122
61.92000 12.148
62.08000 6.115
62.24000 7.142
62.40000 6.156
62.56000 5.133
62.72000 9.146
62.88000 5.140
63.04000 8.179
63.20000 7.093
63.36000 8.166
63.52000 5.125
63.68000 7.201
63.84000 3.024
64.00000 11.282
64.16000 10.119
64.32000 7.103
64.48000 6.008
64.64000 8.963
64.80000 8.146
64.96000 8.039
65.00000 8.056

File: 01092025_BTO_omega_0_5_001_22_23-381_29-319.xy
20.00000 21.277
20.16000 18.232
20.32000 24.265
20.48000 29.362
20.64000 12.098
20.80000 17.098
20.96000 16.120
21.12000 11.100
21.28000 28.248
21.44000 24.386
21.60000 17.094
21.76000 21.240
21.92000 27.614
22.08000 23.270
22.24000 24.277
22.40000 24.322
22.56000 20.298
22.72000 14.028
22.88000 22.154
23.04000 22.167
23.20000 19.186
23.36000 24.578
23.52000 35.257
23.68000 21.484
23.84000 34.513
24.00000 34.217
24.16000 28.420
24.32000 30.317
24.48000 37.593
24.64000 37.409
24.80000 42.593
24.96000 42.457
25.12000 33.362
25.28000 41.404
25.44000 42.734
25.60000 44.483
25.76000 51.589
25.92000 45.611
26.08000 44.592
26.24000 36.665
26.40000 58.643
26.56000 52.511
26.72000 46.488
26.88000 67.826
27.04000 54.698
27.20000 51.935
27.36000 66.944
27.52000 71.216
27.68000 59.911
27.84000 69.094
28.00000 50.824
28.16000 56.465
28.32000 69.061
28.48000 72.136
28.64000 63.133
28.80000 66.989
28.96000 65.146
29.12000 55.653
29.28000 57.978
29.44000 39.565
29.60000 51.689
29.76000 55.659
29.92000 54.980
30.08000 48.832
30.24000 43.662
30.40000 50.741
30.56000 33.274
30.72000 44.709
30.88000 37.376
31.04000 38.328
31.20000 42.538
31.36000 24.405
31.52000 44.912
31.68000 27.439
31.84000 31.177
32.00000 40.707
32.16000 24.438
32.32000 23.390
32.48000 29.316
32.64000 38.590
32.80000 29.263
32.96000 28.190
33.12000 23.435
33.28000 23.971
33.44000 16.307
33.60000 26.451
33.76000 20.518
33.92000 33.542
34.08000 16.207
34.24000 30.225
34.40000 17.275
34.56000 17.273
34.72000 21.233
34.88000 27.474
35.04000 23.142
35.20000 18.247
35.36000 17.135
35.52000 13.109
35.68000 15.139
35.84000 12.146
36.00000 20.356
36.16000 18.253
36.32000 16.314
36.48000 19.204
36.64000 9.101
36.80000 18.328
36.96000 12.031
37.12000 21.089
37.28000 25.356
37.44000 17.066
37.60000 13.037
37.76000 19.237
37.92000 15.277
38.08000 22.367
38.24000 18.315
38.40000 16.042
38.56000 20.300
38.72000 20.134
38.88000 23.298
39.04000 27.234
39.20000 16.046
39.36000 17.169
39.52000 23.484
39.68000 25.437
39.84000 22.269
40.00000 13.225
40.16000 11.241
40.32000 20.186
40.48000 17.374
40.64000 22.118
40.80000 25.483
40.96000 25.317
41.12000 15.163
41.28000 19.299
41.44000 19.117
41.60000 21.466
41.76000 19.278
41.92000 27.352
42.08000 20.529
42.24000 27.343
42.40000 24.384
42.56000 25.289
42.72000 17.229
42.88000 22.338
43.04000 16.266
43.20000 24.344
43.36000 26.324
43.52000 22.336
43.68000 26.386
43.84000 20.137
44.00000 26.188
44.16000 30.416
44.32000 20.421
44.48000 21.376
44.64000 29.384
44.80000 29.219
44.96000 17.177
45.12000 17.316
45.28000 19.243
45.44000 26.590
45.60000 26.220
45.76000 28.390
45.92000 23.299
46.08000 19.257
46.24000 24.419
46.40000 19.186
46.56000 22.163
46.72000 17.166
46.88000 16.199
47.04000 24.204
47.20000 11.169
47.36000 25.237
47.52000 27.345
47.68000 20.162
47.84000 20.279
48.00000 17.101
48.16000 16.238
48.32000 17.244
48.48000 22.271
48.64000 17.434
48.80000 22.166
48.96000 16.339
49.12000 15.139
49.28000 18.312
49.44000 23.407
49.60000 18.197
49.76000 17.204
49.92000 19.322
50.08000 15.096
50.24000 22.376
50.40000 20.222
50.56000 10.160
50.72000 16.078
50.88000 23.201
51.04000 11.162
51.20000 18.136
51.36000 17.139
51.52000 17.173
51.68000 21.269
51.84000 12.272
52.00000 21.468
52.16000 13.062
52.32000 17.430
52.48000 13.230
52.64000 19.194
52.80000 19.063
52.96000 19.244
53.12000 15.130
53.28000 16.202
53.44000 16.230
53.60000 18.376
53.76000 18.115
53.92000 15.211
54.08000 18.294
54.24000 13.091
54.40000 5.038
54.56000 20.338
54.72000 12.043
54.88000 11.140
55.04000 19.476
55.20000 8.134
55.36000 11.105
55.52000 14.189
55.68000 12.942
55.84000 9.156
56.00000 18.189
56.16000 15.086
56.32000 13.148
56.48000 16.229
56.64000 14.168
56.80000 10.944
56.96000 9.080
57.12000 9.045
57.28000 21.665
57.44000 18.290
57.60000 9.080
57.76000 11.089
57.92000 18.272
58.08000 12.212
58.24000 10.148
58.40000 17.245
58.56000 7.148
58.72000 11.206
58.88000 5.127
59.04000 11.134
59.20000 5.989
59.36000 14.155
59.52000 11.162
59.68000 9.135
59.84000 12.045
60.00000 8.035
60.16000 8.118
60.32000 5.085
60.48000 10.129
60.64000 13.170
60.80000 7.186
60.96000 11.212
61.12000 8.993
61.28000 8.061
61.44000 9.053
61.60000 8.134
61.76000 14.290
61.92000 7.046
62.08000 12.164
62.24000 9.198
62.40000 14.052
62.56000 8.108
62.72000 5.068
62.88000 7.142
63.04000 8.133
63.20000 7.082
63.36000 7.106
63.52000 9.114
63.68000 8.151
63.84000 3.056
64.00000 0.000
64.16000 4.068
64.32000 15.238
64.48000 12.132
64.64000 6.110
64.80000 1.973
64.96000 7.085
65.00000 7.185

File: 01092025_BTO_omega_0_5_001_23_8-345_36-560.xy
20.00000 15.061
20.16000 22.348
20.32000 15.172
20.48000 21.415
20.64000 17.470
20.80000 11.067
20.96000 30.427
21.12000 23.314
21.28000 12.098
21.44000 19.185
21.60000 24.325
21.76000 15.304
21.92000 21.269
22.08000 14.444
22.24000 22.412
22.40000 21.247
22.56000 25.205
22.72000 26.345
22.88000 25.363
23.04000 18.349
23.20000 26.392
23.36000 35.536
23.52000 26.258
23.68000 34.420
23.84000 21.433
24.00000 29.500
24.16000 40.783
24.32000 32.416
24.48000 40.662
24.64000 35.481
24.80000 28.242
24.96000 42.454
25.12000 40.454
25.28000 46.720
25.44000 35.599
25.60000 45.668
25.76000 46.693
25.92000 45.482
26.08000 51.654
26.24000 53.935
26.40000 53.655
26.56000 50.357
26.72000 66.193
26.88000 50.727
27.04000 60.587
27.20000 58.992
27.36000 57.087
27.52000 56.636
27.68000 57.818
27.84000 53.880
28.00000 57.692
28.16000 68.011
28.32000 60.839
28.48000 73.135
28.64000 66.687
28.80000 44.570
28.96000 62.984
29.12000 53.612
29.28000 61.098
29.44000 50.492
29.60000 50.345
29.76000 50.712
29.92000 36.500
30.08000 51.793
30.24000 46.930
30.40000 50.805
30.56000 42.295
30.72000 48.861
30.88000 35.040
31.04000 37.405
31.20000 29.338
31.36000 26.164
31.52000 19.381
31.68000 30.428
31.84000 23.475
32.00000 23.275
32.16000 39.884
32.32000 26.282
32.48000 24.328
32.64000 33.633
32.80000 19.279
32.96000 20.183
33.12000 28.336
33.28000 25.185
33.44000 12.999
33.60000 14.025
33.76000 21.253
33.92000 24.260
34.08000 18.284
34.24000 16.122
34.40000 14.156
34.56000 17.142
34.72000 13.952
34.88000 17.073
35.04000 23.466
35.20000 21.380
35.36000 23.296
35.52000 19.260
35.68000 20.309
35.84000 19.312
36.00000 14.254
36.16000 18.228
36.32000 18.101
36.48000 21.204
36.64000 17.324
36.80000 14.218
36.96000 25.240
37.12000 18.233
37.28000 16.312
37.44000 19.410
37.60000 21.303
37.76000 23.468
37.92000 20.180
38.08000 15.136
38.24000 15.202
38.40000 16.263
38.56000 22.167
38.72000 19.243
38.88000 20.297
39.04000 27.608
39.20000 13.276
39.36000 23.433
39.52000 28.235
39.68000 19.289
39.84000 18.392
40.00000 26.273
40.16000 20.104
40.32000 19.064
40.48000 19.296
40.64000 17.169
40.80000 19.290
40.96000 20.239
41.12000 21.219
41.28000 24.311
41.44000 19.345
41.60000 16.261
41.76000 23.359
41.92000 30.666
42.08000 29.273
42.24000 18.268
42.40000 20.053
42.56000 31.649
42.72000 28.183
42.88000 20.375
43.04000 29.186
43.20000 25.337
43.36000 18.079
43.52000 24.349
43.68000 28.312
43.84000 25.255
44.00000 24.292
44.16000 24.420
44.32000 26.315
44.48000 18.254
44.64000 27.512
44.80000 25.279
44.96000 17.153
45.12000 25.333
45.28000 22.566
45.44000 20.398
45.60000 23.346
45.76000 22.335
45.92000 27.261
46.08000 27.262
46.24000 21.359
46.40000 18.308
46.56000 27.238
46.72000 24.306
46.88000 17.308
47.04000 26.572
47.20000 13.134
47.36000 17.352
47.52000 21.218
47.68000 19.971
47.84000 18.401
48.00000 21.306
48.16000 17.192
48.32000 18.416
48.48000 18.350
48.64000 26.183
48.80000 15.283
48.96000 23.361
49.12000 17.253
49.28000 24.259
49.44000 20.274
49.60000 8.135
49.76000 16.196
49.92000 18.316
50.08000 19.353
50.24000 11.274
50.40000 16.402
50.56000 18.050
50.72000 18.197
50.88000 24.368
51.04000 15.061
51.20000 25.414
51.36000 14.275
51.52000 12.163
51.68000 16.124
51.84000 28.487
52.00000 14.186
52.16000 11.088
52.32000 17.147
52.48000 11.116
52.64000 15.164
52.80000 22.299
52.96000 11.191
53.12000 16.189
53.28000 11.139
53.44000 11.102
53.60000 12.248
53.76000 8.067
53.92000 10.037
54.08000 20.441
54.24000 12.165
54.40000 20.177
54.56000 12.902
54.72000 16.193
54.88000 8.084
55.04000 16.224
55.20000 10.032
55.36000 15.204
55.52000 21.459
55.68000 16.387
55.84000 15.279
56.00000 14.411
56.16000 14.001
56.32000 18.208
56.48000 7.094
56.64000 14.207
56.80000 13.299
56.96000 14.459
57.12000 9.019
57.28000 13.130
57.44000 12.166
57.60000 10.230
57.76000 9.196
57.92000 13.047
58.08000 12.560
58.24000 9.035
58.40000 9.221
58.56000 10.077
58.72000 10.072
58.88000 8.987
59.04000 16.400
59.20000 15.143
59.36000 8.932
59.52000 17.983
59.68000 13.064
59.84000 8.185
60.00000 9.134
60.16000 7.090
60.32000 13.163
60.48000 9.221
60.64000 7.083
60.80000 9.100
60.96000 11.250
61.12000 15.163
61.28000 12.161
61.44000 7.075
61.60000 5.057
61.76000 6.128
61.92000 14.063
62.08000 4.018
62.24000 6.106
62.40000 7.152
62.56000 6.068
62.72000 7.116
62.88000 9.125
63.04000 12.181
63.20000 9.202
63.36000 6.069
63.52000 13.165
63.68000 7.184
63.84000 7.121
64.00000 7.098
64.16000 6.047
64.32000 15.153
64.48000 5.088
64.64000 6.150
64.80000 5.051
64.96000 14.162
65.00000 7.072

File: 01092025_BTO_omega_0_5_001_27_11-126_48-746.xy
20.00000 11.093
20.16000 12.164
20.32000 19.440
20.48000 17.267
20.64000 19.216
20.80000 17.297
20.96000 17.933
21.12000 21.221
21.28000 10.161
21.44000 16.218
21.60000 15.170
21.76000 14.261
21.92000 14.255
22.08000 20.279
22.24000 13.189
22.40000 16.131
22.56000 17.205
22.72000 17.228
22.88000 27.404
23.04000 16.356
23.20000 13.208
23.36000 21.271
23.52000 19.219
23.68000 11.020
23.84000 26.411
24.00000 20.258
24.16000 13.120
24.32000 23.367
24.48000 31.396
24.64000 25.244
24.80000 18.340
24.96000 20.442
25.12000 20.196
25.28000 24.372
25.44000 17.273
25.60000 24.327
25.76000 31.383
25.92000 23.484
26.08000 38.575
26.24000 35.407
26.40000 33.398
26.56000 33.619
26.72000 26.310
26.88000 23.270
27.04000 29.547
27.20000 31.435
27.36000 42.689
27.52000 31.418
27.68000 40.483
27.84000 28.466
28.00000 34.559
28.16000 22.307
28.32000 45.756
28.48000 36.553
28.64000 35.339
28.80000 33.480
28.96000 31.388
29.12000 37.360
29.28000 37.763
29.44000 41.481
29.60000 37.526
29.76000 40.793
29.92000 33.507
30.08000 20.278
30.24000 26.213
30.40000 30.341
30.56000 26.272
30.72000 23.237
30.88000 26.378
31.04000 19.232
31.20000 16.383
31.36000 20.202
31.52000 17.348
31.68000 31.538
31.84000 16.158
32.00000 13.270
32.16000 15.063
32.32000 15.093
32.48000 23.317
32.64000 16.137
32.80000 9.241
32.96000 15.313
33.12000 18.488
33.28000 9.144
33.44000 9.112
33.60000 19.080
33.76000 12.286
33.92000 12.354
34.08000 12.135
34.24000 11.189
34.40000 12.170
34.56000 9.120
34.72000 14.177
34.88000 20.393
35.04000 13.249
35.20000 11.097
35.36000 7.085
35.52000 14.224
35.68000 9.049
35.84000 12.299
36.00000 13.163
36.16000 18.080
36.32000 8.009
36.48000 8.131
36.64000 8.045
36.80000 6.078
36.96000 13.179
37.12000 10.166
37.28000 13.060
37.44000 14.339
37.60000 9.120
37.76000 7.154
37.92000 8.147
38.08000 14.284
38.24000 16.186
38.40000 11.075
38.56000 15.105
38.72000 16.285
38.88000 6.001
39.04000 12.171
39.20000 16.215
39.36000 13.166
39.52000 15.166
39.68000 14.243
39.84000 10.202
40.00000 12.162
40.16000 17.222
40.32000 12.270
40.48000 17.206
40.64000 12.125
40.80000 19.176
40.96000 16.211
41.12000 20.407
41.28000 18.084
41.44000 12.216
41.60000 18.246
41.76000 12.165
41.92000 13.042
42.08000 17.264
42.24000 11.286
42.40000 17.478
42.56000 23.291
42.72000 9.109
42.88000 10.182
43.04000 16.404
43.20000 12.234
43.36000 19.313
43.52000 21.334
43.68000 16.240
43.84000 9.141
44.00000 10.137
44.16000 16.166
44.32000 12.262
44.48000 11.095
44.64000 13.172
44.80000 16.090
44.96000 18.215
45.12000 15.263
45.28000 19.399
45.44000 14.300
45.60000 11.022
45.76000 18.268
45.92000 13.286
46.08000 11.159
46.24000 13.087
46.40000 13.029
46.56000 10.171
46.72000 17.302
46.88000 11.020
47.04000 17.085
47.20000 14.427
47.36000 16.956
47.52000 14.162
47.68000 12.297
47.84000 5.098
48.00000 11.242
48.16000 11.050
48.32000 14.202
48.48000 17.136
48.64000 13.197
48.80000 16.242
48.96000 16.291
49.12000 10.266
49.28000 15.251
49.44000 18.132
49.60000 13.146
49.76000 18.308
49.92000 11.092
50.08000 12.262
50.24000 7.011
50.40000 8.105
50.56000 16.379
50.72000 9.044
50.88000 11.023
51.04000 11.145
51.20000 11.281
51.36000 16.354
51.52000 9.065
51.68000 4.021
51.84000 12.249
52.00000 11.325
52.16000 10.199
52.32000 10.128
52.48000 17.225
52.64000 12.330
52.80000 11.120
52.96000 12.101
53.12000 10.121
53.28000 10.102
53.44000 9.042
53.60000 10.115
53.76000 9.367
53.92000 13.170
54.08000 11.252
54.24000 12.191
54.40000 11.063
54.56000 9.314
54.72000 14.013
54.88000 11.098
55.04000 6.104
55.20000 7.034
55.36000 9.098
55.52000 10.175
55.68000 13.245
55.84000 10.157
56.00000 8.061
56.16000 6.992
56.32000 14.150
56.48000 1.032
56.64000 7.130
56.80000 7.046
56.96000 7.278
57.12000 7.045
57.28000 6.994
57.44000 5.090
57.60000 11.117
57.76000 13.107
57.92000 4.117
58.08000 8.152
58.24000 4.066
58.40000 10.107
58.56000 10.125
58.72000 5.066
58.88000 7.122
59.04000 7.018
59.20000 9.056
59.36000 5.223
59.52000 8.010
59.68000 6.070
59.84000 8.096
60.00000 5.013
60.16000 10.099
60.32000 2.982
60.48000 5.019
60.64000 12.006
60.80000 9.101
60.96000 8.040
61.12000 4.027
61.28000 8.061
61.44000 7.115
61.60000 10.063
61.76000 6.088
61.92000 8.127
62.08000 5.066
62.24000 8.226
62.40000 9.206
62.56000 5.189
62.72000 1.044
62.88000 9.083
63.04000 11.081
63.20000 7.131
63.36000 9.055
63.52000 5.010
63.68000 7.125
63.84000 5.012
64.00000 9.225
64.16000 6.218
64.32000 5.217
64.48000 7.041
64.64000 4.042
64.80000 7.077
64.96000 3.986
65.00000 6.037