Folder: Master-Thesis/XRD/XRD/11-09-2025/XY Data (part 4)

File: 01092025_BTO_omega_1_001_01_-11-126_-48-746.xy
20.00000 148.626
20.16000 145.912
20.32000 117.539
20.48000 136.528
20.64000 111.511
20.80000 117.470
20.96000 98.363
21.12000 114.014
21.28000 109.998
21.44000 81.560
21.60000 78.748
21.76000 76.451
21.92000 83.640
22.08000 75.148
22.24000 61.561
22.40000 67.394
22.56000 45.547
22.72000 46.327
22.88000 55.650
23.04000 43.565
23.20000 29.236
23.36000 20.216
23.52000 31.248
23.68000 30.053
23.84000 32.422
24.00000 21.229
24.16000 21.170
24.32000 17.226
24.48000 28.418
24.64000 30.477
24.80000 23.266
24.96000 19.233
25.12000 28.234
25.28000 15.252
25.44000 18.149
25.60000 18.391
25.76000 15.284
25.92000 22.292
26.08000 15.165
26.24000 17.082
26.40000 8.034
26.56000 16.176
26.72000 9.169
26.88000 13.233
27.04000 8.195
27.20000 7.094
27.36000 13.200
27.52000 15.212
27.68000 18.099
27.84000 15.171
28.00000 8.059
28.16000 11.040
28.32000 19.463
28.48000 12.198
28.64000 10.304
28.80000 10.992
28.96000 11.102
29.12000 4.053
29.28000 8.047
29.44000 10.100
29.60000 7.104
29.76000 4.002
29.92000 9.109
30.08000 10.088
30.24000 12.115
30.40000 12.181
30.56000 7.129
30.72000 8.112
30.88000 8.027
31.04000 11.235
31.20000 12.186
31.36000 4.021
31.52000 9.032
31.68000 10.096
31.84000 10.110
32.00000 3.064
32.16000 11.196
32.32000 6.096
32.48000 6.052
32.64000 14.046
32.80000 6.092
32.96000 8.121
33.12000 4.080
33.28000 6.032
33.44000 11.079
33.60000 6.055
33.76000 6.188
33.92000 6.085
34.08000 7.027
34.24000 4.111
34.40000 6.085
34.56000 6.080
34.72000 6.056
34.88000 9.075
35.04000 8.148
35.20000 10.262
35.36000 10.251
35.52000 6.000
35.68000 4.061
35.84000 14.057
36.00000 6.143
36.16000 8.197
36.32000 2.047
36.48000 4.089
36.64000 10.168
36.80000 9.215
36.96000 4.070
37.12000 3.012
37.28000 8.094
37.44000 9.167
37.60000 7.043
37.76000 3.053
37.92000 4.044
38.08000 5.061
38.24000 7.153
38.40000 6.104
38.56000 7.162
38.72000 5.022
38.88000 4.999
39.04000 4.056
39.20000 7.073
39.36000 2.058
39.52000 7.036
39.68000 3.070
39.84000 8.008
40.00000 11.067
40.16000 6.187
40.32000 4.037
40.48000 1.054
40.64000 4.032
40.80000 5.089
40.96000 6.105
41.12000 9.124
41.28000 1.006
41.44000 1.975
41.60000 5.031
41.76000 6.016
41.92000 5.012
42.08000 1.033
42.24000 1.998
42.40000 7.098
42.56000 0.000
42.72000 3.059
42.88000 3.027
43.04000 6.035
43.20000 4.016
43.36000 5.073
43.52000 3.081
43.68000 5.028
43.84000 3.086
44.00000 5.110
44.16000 5.083
44.32000 5.046
44.48000 10.167
44.64000 2.059
44.80000 6.045
44.96000 3.030
45.12000 5.114
45.28000 3.972
45.44000 2.099
45.60000 4.013
45.76000 3.978
45.92000 3.088
46.08000 2.034
46.24000 4.037
46.40000 5.063
46.56000 4.031
46.72000 3.041
46.88000 5.977
47.04000 5.048
47.20000 1.007
47.36000 4.008
47.52000 2.046
47.68000 2.984
47.84000 3.061
48.00000 5.973
48.16000 0.000
48.32000 3.082
48.48000 1.987
48.64000 3.079
48.80000 1.992
48.96000 2.033
49.12000 8.113
49.28000 4.076
49.44000 3.023
49.60000 3.044
49.76000 3.052
49.92000 1.025
50.08000 1.019
50.24000 1.023
50.40000 1.978
50.56000 0.985
50.72000 1.017
50.88000 3.994
51.04000 0.000
51.20000 0.000
51.36000 0.000
51.52000 4.137
51.68000 3.072
51.84000 3.064
52.00000 4.982
52.16000 0.000
52.32000 4.013
52.48000 5.159
52.64000 1.010
52.80000 3.070
52.96000 4.077
53.12000 1.006
53.28000 1.038
53.44000 5.131
53.60000 6.077
53.76000 3.054
53.92000 2.048
54.08000 2.007
54.24000 4.925
54.40000 4.048
54.56000 1.029
54.72000 2.066
54.88000 3.089
55.04000 1.024
55.20000 2.980
55.36000 2.027
55.52000 4.095
55.68000 1.984
55.84000 1.009
56.00000 6.033
56.16000 3.003
56.32000 1.014
56.48000 1.984
56.64000 2.980
56.80000 0.999
56.96000 3.018
57.12000 3.147
57.28000 2.063
57.44000 4.037
57.60000 2.024
57.76000 3.037
57.92000 0.990
58.08000 3.039
58.24000 2.049
58.40000 2.979
58.56000 2.053
58.72000 4.033
58.88000 3.109
59.04000 3.044
59.20000 2.015
59.36000 3.042
59.52000 2.046
59.68000 1.064
59.84000 1.024
60.00000 1.986
60.16000 3.049
60.32000 4.969
60.48000 1.009
60.64000 1.032
60.80000 2.033
60.96000 2.016
61.12000 0.991
61.28000 2.027
61.44000 1.013
61.60000 4.014
61.76000 1.002
61.92000 2.067
62.08000 4.008
62.24000 2.046
62.40000 0.993
62.56000 0.000
62.72000 2.016
62.88000 2.988
63.04000 2.061
63.20000 2.984
63.36000 0.000
63.52000 2.039
63.68000 3.083
63.84000 1.031
64.00000 1.965
64.16000 4.024
64.32000 2.010
64.48000 0.997
64.64000 5.073
64.80000 4.028
64.96000 2.025
65.00000 0.000

File: 01092025_BTO_omega_1_001_02_11-126_-48-746.xy
20.00000 76.965
20.16000 74.529
20.32000 87.661
20.48000 76.741
20.64000 85.903
20.80000 73.576
20.96000 83.985
21.12000 81.792
21.28000 54.718
21.44000 81.997
21.60000 57.483
21.76000 50.202
21.92000 40.390
22.08000 54.460
22.24000 49.318
22.40000 44.353
22.56000 39.498
22.72000 30.405
22.88000 31.132
23.04000 47.341
23.20000 37.604
23.36000 33.296
23.52000 31.452
23.68000 28.227
23.84000 27.158
24.00000 23.342
24.16000 29.342
24.32000 19.299
24.48000 27.314
24.64000 22.508
24.80000 20.146
24.96000 19.225
25.12000 21.340
25.28000 18.142
25.44000 18.007
25.60000 14.157
25.76000 15.021
25.92000 13.251
26.08000 16.268
26.24000 11.064
26.40000 7.138
26.56000 16.302
26.72000 9.124
26.88000 19.188
27.04000 8.179
27.20000 13.211
27.36000 13.168
27.52000 16.290
27.68000 15.158
27.84000 8.123
28.00000 15.129
28.16000 8.155
28.32000 9.245
28.48000 8.242
28.64000 10.180
28.80000 12.056
28.96000 11.292
29.12000 11.100
29.28000 12.077
29.44000 8.970
29.60000 4.018
29.76000 11.292
29.92000 8.222
30.08000 11.232
30.24000 10.061
30.40000 7.008
30.56000 5.122
30.72000 6.074
30.88000 6.076
31.04000 11.206
31.20000 9.117
31.36000 11.201
31.52000 12.272
31.68000 9.187
31.84000 6.002
32.00000 10.096
32.16000 8.099
32.32000 3.972
32.48000 7.008
32.64000 5.090
32.80000 5.091
32.96000 6.125
33.12000 12.117
33.28000 5.117
33.44000 4.087
33.60000 10.037
33.76000 9.109
33.92000 1.035
34.08000 5.103
34.24000 4.053
34.40000 8.218
34.56000 3.050
34.72000 7.101
34.88000 9.182
35.04000 0.990
35.20000 4.939
35.36000 7.213
35.52000 3.019
35.68000 2.970
35.84000 2.062
36.00000 13.227
36.16000 4.052
36.32000 6.094
36.48000 4.020
36.64000 3.985
36.80000 7.051
36.96000 3.044
37.12000 5.105
37.28000 5.982
37.44000 12.058
37.60000 6.288
37.76000 5.122
37.92000 5.095
38.08000 2.009
38.24000 4.072
38.40000 3.019
38.56000 4.017
38.72000 6.141
38.88000 1.038
39.04000 1.988
39.20000 8.171
39.36000 4.040
39.52000 7.061
39.68000 6.959
39.84000 2.032
40.00000 11.126
40.16000 10.125
40.32000 3.030
40.48000 3.018
40.64000 4.035
40.80000 2.108
40.96000 6.124
41.12000 2.029
41.28000 3.021
41.44000 3.041
41.60000 4.046
41.76000 5.099
41.92000 2.045
42.08000 8.194
42.24000 4.090
42.40000 6.101
42.56000 2.016
42.72000 4.080
42.88000 0.986
43.04000 5.076
43.20000 2.995
43.36000 7.202
43.52000 6.096
43.68000 1.024
43.84000 6.008
44.00000 2.958
44.16000 4.039
44.32000 4.042
44.48000 5.052
44.64000 2.032
44.80000 5.129
44.96000 6.032
45.12000 5.161
45.28000 6.138
45.44000 3.008
45.60000 1.999
45.76000 6.101
45.92000 4.038
46.08000 0.000
46.24000 5.020
46.40000 2.006
46.56000 0.983
46.72000 3.040
46.88000 4.121
47.04000 4.120
47.20000 1.976
47.36000 1.041
47.52000 1.979
47.68000 2.050
47.84000 3.016
48.00000 5.086
48.16000 5.042
48.32000 3.019
48.48000 3.060
48.64000 3.043
48.80000 2.050
48.96000 2.029
49.12000 4.073
49.28000 2.054
49.44000 2.020
49.60000 1.043
49.76000 2.015
49.92000 2.991
50.08000 2.002
50.24000 3.052
50.40000 5.053
50.56000 0.000
50.72000 2.016
50.88000 3.022
51.04000 2.007
51.20000 0.000
51.36000 5.061
51.52000 1.033
51.68000 1.994
51.84000 2.027
52.00000 3.028
52.16000 4.017
52.32000 4.038
52.48000 2.999
52.64000 3.039
52.80000 2.041
52.96000 5.042
53.12000 3.093
53.28000 0.000
53.44000 2.063
53.60000 3.060
53.76000 1.074
53.92000 2.987
54.08000 2.024
54.24000 1.973
54.40000 2.019
54.56000 2.970
54.72000 4.077
54.88000 2.975
55.04000 1.021
55.20000 5.014
55.36000 5.084
55.52000 0.000
55.68000 2.049
55.84000 2.016
56.00000 3.007
56.16000 2.004
56.32000 6.029
56.48000 1.978
56.64000 2.014
56.80000 0.000
56.96000 0.000
57.12000 2.026
57.28000 3.123
57.44000 0.000
57.60000 0.000
57.76000 0.987
57.92000 0.000
58.08000 2.042
58.24000 5.020
58.40000 2.982
58.56000 3.000
58.72000 0.000
58.88000 3.074
59.04000 5.095
59.20000 1.036
59.36000 1.016
59.52000 1.994
59.68000 0.000
59.84000 3.071
60.00000 1.983
60.16000 0.000
60.32000 0.990
60.48000 2.045
60.64000 0.000
60.80000 2.060
60.96000 4.097
61.12000 1.038
61.28000 0.991
61.44000 1.997
61.60000 2.048
61.76000 4.967
61.92000 1.017
62.08000 0.990
62.24000 2.955
62.40000 1.021
62.56000 0.000
62.72000 0.000
62.88000 1.988
63.04000 1.055
63.20000 0.997
63.36000 0.997
63.52000 5.058
63.68000 3.048
63.84000 2.986
64.00000 0.999
64.16000 1.033
64.32000 0.983
64.48000 1.015
64.64000 1.010
64.80000 3.041
64.96000 1.023
65.00000 1.999

File: 01092025_BTO_omega_1_001_05_-8-345_-36-560.xy
20.00000 159.784
20.16000 144.896
20.32000 141.085
20.48000 154.801
20.64000 119.445
20.80000 116.144
20.96000 132.120
21.12000 112.368
21.28000 125.909
21.44000 99.244
21.60000 86.926
21.76000 96.252
21.92000 85.778
22.08000 63.803
22.24000 78.908
22.40000 63.698
22.56000 50.282
22.72000 46.566
22.88000 59.993
23.04000 52.333
23.20000 50.593
23.36000 34.545
23.52000 33.146
23.68000 41.387
23.84000 24.132
24.00000 39.436
24.16000 35.444
24.32000 27.466
24.48000 32.386
24.64000 23.263
24.80000 31.363
24.96000 24.212
25.12000 18.056
25.28000 8.902
25.44000 18.242
25.60000 15.081
25.76000 12.987
25.92000 17.087
26.08000 18.186
26.24000 7.116
26.40000 10.176
26.56000 18.130
26.72000 15.202
26.88000 6.075
27.04000 10.148
27.20000 16.322
27.36000 17.116
27.52000 7.080
27.68000 7.129
27.84000 13.078
28.00000 7.164
28.16000 14.155
28.32000 11.209
28.48000 7.094
28.64000 10.073
28.80000 15.143
28.96000 9.065
29.12000 10.030
29.28000 10.080
29.44000 8.096
29.60000 16.036
29.76000 9.113
29.92000 4.055
30.08000 11.269
30.24000 13.180
30.40000 6.050
30.56000 8.052
30.72000 10.200
30.88000 5.141
31.04000 17.270
31.20000 9.089
31.36000 8.079
31.52000 8.135
31.68000 11.198
31.84000 15.046
32.00000 5.006
32.16000 4.024
32.32000 8.127
32.48000 11.106
32.64000 8.176
32.80000 14.198
32.96000 9.186
33.12000 7.181
33.28000 8.160
33.44000 8.175
33.60000 8.087
33.76000 13.205
33.92000 8.076
34.08000 8.127
34.24000 10.214
34.40000 11.159
34.56000 8.090
34.72000 1.986
34.88000 10.045
35.04000 8.135
35.20000 10.112
35.36000 6.145
35.52000 6.137
35.68000 5.048
35.84000 6.076
36.00000 6.112
36.16000 4.034
36.32000 4.083
36.48000 6.111
36.64000 3.998
36.80000 6.001
36.96000 5.138
37.12000 7.021
37.28000 4.040
37.44000 7.056
37.60000 5.197
37.76000 3.007
37.92000 6.226
38.08000 8.016
38.24000 6.222
38.40000 5.119
38.56000 2.041
38.72000 5.118
38.88000 5.054
39.04000 7.079
39.20000 2.022
39.36000 1.994
39.52000 1.027
39.68000 5.994
39.84000 3.080
40.00000 6.080
40.16000 6.057
40.32000 4.054
40.48000 7.184
40.64000 7.064
40.80000 6.044
40.96000 2.999
41.12000 6.013
41.28000 4.090
41.44000 3.995
41.60000 2.046
41.76000 5.079
41.92000 4.013
42.08000 4.011
42.24000 1.974
42.40000 5.127
42.56000 3.022
42.72000 2.049
42.88000 2.970
43.04000 2.984
43.20000 5.924
43.36000 4.100
43.52000 5.010
43.68000 5.127
43.84000 6.097
44.00000 4.111
44.16000 9.058
44.32000 2.006
44.48000 0.000
44.64000 6.059
44.80000 4.003
44.96000 3.083
45.12000 6.048
45.28000 1.980
45.44000 4.144
45.60000 3.055
45.76000 7.153
45.92000 4.057
46.08000 4.041
46.24000 4.110
46.40000 1.029
46.56000 5.082
46.72000 0.000
46.88000 0.987
47.04000 3.031
47.20000 1.030
47.36000 1.011
47.52000 6.060
47.68000 5.024
47.84000 1.997
48.00000 2.007
48.16000 5.078
48.32000 0.000
48.48000 4.064
48.64000 3.020
48.80000 1.003
48.96000 3.081
49.12000 3.055
49.28000 2.995
49.44000 3.045
49.60000 1.963
49.76000 1.034
49.92000 1.977
50.08000 1.978
50.24000 0.982
50.40000 3.011
50.56000 1.066
50.72000 1.960
50.88000 2.045
51.04000 7.120
51.20000 0.000
51.36000 3.011
51.52000 6.088
51.68000 3.028
51.84000 2.039
52.00000 3.055
52.16000 1.007
52.32000 2.993
52.48000 8.143
52.64000 1.996
52.80000 1.987
52.96000 3.040
53.12000 0.993
53.28000 0.000
53.44000 3.092
53.60000 0.981
53.76000 2.032
53.92000 5.069
54.08000 4.073
54.24000 7.096
54.40000 0.984
54.56000 0.984
54.72000 3.079
54.88000 0.000
55.04000 2.006
55.20000 4.055
55.36000 4.123
55.52000 0.997
55.68000 5.066
55.84000 3.013
56.00000 3.997
56.16000 2.107
56.32000 3.083
56.48000 1.005
56.64000 3.017
56.80000 4.098
56.96000 1.027
57.12000 1.996
57.28000 2.016
57.44000 0.000
57.60000 3.082
57.76000 4.057
57.92000 1.036
58.08000 1.055
58.24000 2.056
58.40000 2.027
58.56000 2.076
58.72000 0.000
58.88000 4.188
59.04000 4.087
59.20000 0.000
59.36000 1.024
59.52000 1.058
59.68000 1.028
59.84000 3.033
60.00000 1.980
60.16000 2.084
60.32000 3.009
60.48000 3.036
60.64000 1.067
60.80000 3.042
60.96000 3.019
61.12000 3.087
61.28000 3.064
61.44000 0.981
61.60000 2.007
61.76000 2.038
61.92000 3.983
62.08000 0.980
62.24000 3.067
62.40000 1.012
62.56000 0.000
62.72000 0.000
62.88000 0.000
63.04000 1.025
63.20000 1.984
63.36000 1.020
63.52000 2.000
63.68000 0.000
63.84000 3.016
64.00000 3.090
64.16000 1.992
64.32000 1.981
64.48000 2.053
64.64000 1.003
64.80000 2.015
64.96000 1.021
65.00000 0.000

File: 01092025_BTO_omega_1_001_06_8-345_-36-560.xy
20.00000 174.960
20.16000 174.433
20.32000 166.743
20.48000 165.951
20.64000 156.473
20.80000 132.248
20.96000 149.704
21.12000 120.225
21.28000 121.027
21.44000 110.056
21.60000 86.779
21.76000 109.205
21.92000 94.858
22.08000 79.943
22.24000 82.541
22.40000 73.829
22.56000 68.611
22.72000 67.501
22.88000 54.360
23.04000 64.638
23.20000 50.369
23.36000 45.492
23.52000 44.405
23.68000 36.397
23.84000 51.705
24.00000 29.223
24.16000 30.694
24.32000 36.238
24.48000 31.320
24.64000 24.384
24.80000 16.166
24.96000 17.052
25.12000 26.389
25.28000 20.190
25.44000 23.348
25.60000 16.157
25.76000 23.402
25.92000 14.234
26.08000 12.089
26.24000 18.187
26.40000 11.992
26.56000 15.295
26.72000 19.004
26.88000 12.169
27.04000 12.985
27.20000 11.057
27.36000 11.245
27.52000 12.166
27.68000 13.164
27.84000 16.222
28.00000 14.238
28.16000 11.195
28.32000 8.993
28.48000 15.186
28.64000 11.204
28.80000 12.120
28.96000 9.991
29.12000 5.110
29.28000 10.163
29.44000 9.040
29.60000 7.104
29.76000 10.099
29.92000 7.967
30.08000 9.112
30.24000 8.105
30.40000 14.233
30.56000 12.981
30.72000 8.028
30.88000 6.933
31.04000 9.213
31.20000 9.087
31.36000 11.209
31.52000 12.263
31.68000 9.201
31.84000 7.042
32.00000 6.158
32.16000 7.107
32.32000 11.107
32.48000 6.039
32.64000 8.135
32.80000 5.153
32.96000 6.162
33.12000 2.032
33.28000 6.219
33.44000 9.070
33.60000 2.003
33.76000 7.053
33.92000 5.037
34.08000 2.024
34.24000 7.109
34.40000 8.967
34.56000 4.990
34.72000 12.302
34.88000 4.099
35.04000 6.100
35.20000 9.047
35.36000 3.005
35.52000 12.121
35.68000 3.060
35.84000 5.044
36.00000 7.114
36.16000 3.951
36.32000 9.132
36.48000 5.074
36.64000 6.173
36.80000 3.047
36.96000 2.011
37.12000 5.060
37.28000 3.086
37.44000 3.114
37.60000 9.136
37.76000 2.995
37.92000 6.040
38.08000 5.035
38.24000 5.962
38.40000 5.112
38.56000 5.119
38.72000 6.060
38.88000 4.120
39.04000 4.011
39.20000 4.003
39.36000 6.111
39.52000 7.109
39.68000 5.990
39.84000 8.126
40.00000 4.087
40.16000 6.174
40.32000 3.048
40.48000 4.051
40.64000 3.990
40.80000 9.095
40.96000 3.127
41.12000 3.081
41.28000 4.963
41.44000 4.063
41.60000 4.986
41.76000 4.034
41.92000 2.016
42.08000 3.065
42.24000 4.100
42.40000 2.051
42.56000 3.988
42.72000 3.093
42.88000 3.073
43.04000 3.055
43.20000 4.041
43.36000 6.951
43.52000 4.032
43.68000 0.997
43.84000 4.061
44.00000 5.092
44.16000 3.009
44.32000 5.046
44.48000 1.978
44.64000 0.995
44.80000 2.077
44.96000 2.994
45.12000 3.052
45.28000 2.990
45.44000 4.000
45.60000 7.148
45.76000 2.032
45.92000 4.047
46.08000 6.092
46.24000 5.046
46.40000 3.053
46.56000 7.113
46.72000 3.032
46.88000 3.020
47.04000 5.028
47.20000 5.082
47.36000 7.070
47.52000 2.009
47.68000 1.018
47.84000 2.011
48.00000 6.015
48.16000 4.101
48.32000 4.058
48.48000 2.044
48.64000 3.023
48.80000 1.956
48.96000 3.019
49.12000 0.000
49.28000 1.049
49.44000 3.043
49.60000 1.016
49.76000 4.014
49.92000 2.069
50.08000 3.047
50.24000 2.064
50.40000 5.096
50.56000 2.076
50.72000 1.063
50.88000 4.119
51.04000 3.058
51.20000 2.012
51.36000 1.019
51.52000 5.031
51.68000 3.027
51.84000 1.046
52.00000 2.025
52.16000 1.015
52.32000 4.055
52.48000 2.080
52.64000 2.058
52.80000 1.008
52.96000 1.041
53.12000 2.050
53.28000 3.045
53.44000 3.067
53.60000 3.086
53.76000 3.003
53.92000 3.071
54.08000 1.983
54.24000 1.071
54.40000 2.020
54.56000 1.025
54.72000 3.998
54.88000 2.997
55.04000 3.031
55.20000 3.083
55.36000 2.996
55.52000 1.967
55.68000 2.039
55.84000 1.039
56.00000 3.044
56.16000 2.038
56.32000 2.069
56.48000 2.035
56.64000 1.011
56.80000 2.021
56.96000 2.040
57.12000 1.008
57.28000 5.070
57.44000 2.982
57.60000 6.030
57.76000 2.990
57.92000 3.090
58.08000 3.057
58.24000 0.998
58.40000 4.040
58.56000 2.975
58.72000 1.999
58.88000 0.986
59.04000 2.999
59.20000 0.995
59.36000 2.021
59.52000 1.003
59.68000 1.004
59.84000 3.054
60.00000 1.001
60.16000 1.071
60.32000 4.992
60.48000 2.961
60.64000 1.042
60.80000 2.004
60.96000 0.991
61.12000 0.981
61.28000 3.039
61.44000 1.010
61.60000 1.977
61.76000 4.045
61.92000 2.056
62.08000 7.135
62.24000 2.059
62.40000 1.962
62.56000 0.000
62.72000 2.027
62.88000 3.037
63.04000 1.025
63.20000 2.009
63.36000 0.000
63.52000 2.013
63.68000 2.995
63.84000 3.003
64.00000 1.991
64.16000 3.041
64.32000 3.013
64.48000 0.000
64.64000 1.001
64.80000 5.017
64.96000 1.995
65.00000 2.027

File: 01092025_BTO_omega_1_001_08_-23-381_-29-319.xy
20.00000 149.573
20.16000 103.846
20.32000 131.828
20.48000 126.414
20.64000 136.550
20.80000 110.578
20.96000 108.163
21.12000 98.297
21.28000 82.976
21.44000 106.149
21.60000 75.845
21.76000 80.576
21.92000 70.638
22.08000 72.915
22.24000 58.760
22.40000 56.532
22.56000 66.661
22.72000 55.722
22.88000 50.473
23.04000 40.573
23.20000 47.470
23.36000 40.221
23.52000 33.359
23.68000 33.394
23.84000 21.282
24.00000 35.250
24.16000 27.250
24.32000 26.127
24.48000 31.211
24.64000 22.009
24.80000 26.594
24.96000 17.205
25.12000 16.227
25.28000 18.279
25.44000 13.235
25.60000 12.143
25.76000 10.153
25.92000 19.280
26.08000 14.099
26.24000 17.237
26.40000 15.300
26.56000 16.189
26.72000 11.966
26.88000 12.223
27.04000 14.198
27.20000 19.262
27.36000 9.048
27.52000 12.168
27.68000 14.104
27.84000 16.140
28.00000 5.119
28.16000 9.246
28.32000 8.121
28.48000 4.081
28.64000 12.139
28.80000 9.183
28.96000 14.192
29.12000 12.086
29.28000 11.229
29.44000 12.093
29.60000 15.182
29.76000 5.140
29.92000 8.128
30.08000 8.033
30.24000 14.090
30.40000 7.959
30.56000 6.117
30.72000 10.031
30.88000 6.083
31.04000 4.100
31.20000 12.172
31.36000 11.275
31.52000 10.217
31.68000 10.116
31.84000 8.124
32.00000 10.090
32.16000 14.123
32.32000 7.017
32.48000 2.081
32.64000 5.047
32.80000 5.095
32.96000 11.143
33.12000 6.183
33.28000 10.118
33.44000 8.234
33.60000 8.116
33.76000 6.078
33.92000 6.082
34.08000 8.106
34.24000 7.146
34.40000 7.102
34.56000 7.121
34.72000 6.124
34.88000 10.182
35.04000 3.047
35.20000 8.003
35.36000 6.089
35.52000 6.076
35.68000 4.037
35.84000 9.153
36.00000 3.040
36.16000 4.023
36.32000 6.990
36.48000 5.053
36.64000 5.979
36.80000 6.030
36.96000 2.047
37.12000 4.069
37.28000 9.080
37.44000 4.016
37.60000 9.124
37.76000 6.063
37.92000 6.048
38.08000 5.008
38.24000 4.948
38.40000 4.013
38.56000 4.975
38.72000 2.023
38.88000 6.133
39.04000 1.042
39.20000 6.183
39.36000 2.033
39.52000 6.131
39.68000 0.000
39.84000 6.092
40.00000 4.023
40.16000 3.019
40.32000 4.065
40.48000 3.015
40.64000 7.111
40.80000 6.063
40.96000 2.008
41.12000 3.050
41.28000 6.166
41.44000 5.976
41.60000 4.138
41.76000 0.992
41.92000 3.071
42.08000 2.038
42.24000 6.049
42.40000 6.014
42.56000 4.032
42.72000 7.064
42.88000 5.022
43.04000 5.009
43.20000 4.993
43.36000 5.000
43.52000 9.141
43.68000 2.977
43.84000 3.038
44.00000 3.979
44.16000 2.068
44.32000 2.058
44.48000 2.970
44.64000 3.058
44.80000 1.017
44.96000 7.020
45.12000 2.035
45.28000 2.038
45.44000 6.308
45.60000 0.000
45.76000 6.104
45.92000 2.040
46.08000 1.026
46.24000 4.026
46.40000 4.099
46.56000 0.000
46.72000 1.997
46.88000 1.023
47.04000 2.012
47.20000 1.011
47.36000 6.023
47.52000 3.989
47.68000 1.029
47.84000 5.011
48.00000 4.038
48.16000 1.008
48.32000 1.975
48.48000 3.067
48.64000 2.040
48.80000 3.064
48.96000 3.081
49.12000 2.981
49.28000 2.092
49.44000 6.102
49.60000 1.041
49.76000 6.067
49.92000 3.054
50.08000 0.996
50.24000 2.039
50.40000 3.063
50.56000 4.072
50.72000 3.014
50.88000 4.070
51.04000 3.059
51.20000 4.094
51.36000 1.980
51.52000 3.074
51.68000 1.022
51.84000 5.053
52.00000 3.047
52.16000 1.998
52.32000 3.004
52.48000 2.996
52.64000 5.044
52.80000 5.061
52.96000 3.020
53.12000 0.000
53.28000 1.068
53.44000 3.034
53.60000 6.033
53.76000 3.000
53.92000 1.070
54.08000 1.049
54.24000 2.046
54.40000 1.048
54.56000 5.056
54.72000 3.021
54.88000 2.045
55.04000 0.987
55.20000 6.069
55.36000 3.053
55.52000 3.055
55.68000 1.015
55.84000 3.006
56.00000 3.020
56.16000 3.002
56.32000 0.000
56.48000 3.011
56.64000 1.021
56.80000 1.010
56.96000 3.118
57.12000 1.970
57.28000 2.012
57.44000 1.003
57.60000 5.059
57.76000 1.031
57.92000 0.989
58.08000 0.965
58.24000 1.956
58.40000 2.051
58.56000 3.018
58.72000 1.047
58.88000 3.014
59.04000 4.079
59.20000 2.975
59.36000 0.995
59.52000 4.039
59.68000 4.104
59.84000 5.008
60.00000 2.045
60.16000 1.017
60.32000 5.171
60.48000 1.983
60.64000 2.075
60.80000 4.034
60.96000 1.981
61.12000 1.024
61.28000 2.074
61.44000 0.000
61.60000 2.017
61.76000 3.059
61.92000 3.058
62.08000 2.012
62.24000 5.048
62.40000 3.003
62.56000 3.013
62.72000 2.021
62.88000 0.000
63.04000 3.012
63.20000 1.013
63.36000 0.988
63.52000 2.045
63.68000 0.990
63.84000 4.020
64.00000 1.018
64.16000 0.993
64.32000 5.079
64.48000 1.029
64.64000 2.968
64.80000 0.984
64.96000 0.000
65.00000 0.000