Folder: Master-Thesis/XRD/XRD/11-09-2025/XY Data (part 7)

File: 01092025_BTO_omega_1_001_27_25-000_0-000.xy
20.00000 13.212
20.16000 15.328
20.32000 19.227
20.48000 17.372
20.64000 10.187
20.80000 18.275
20.96000 27.275
21.12000 17.165
21.28000 20.081
21.44000 20.235
21.60000 15.223
21.76000 17.332
21.92000 17.231
22.08000 21.971
22.24000 21.313
22.40000 13.194
22.56000 24.207
22.72000 16.097
22.88000 20.219
23.04000 22.465
23.20000 15.132
23.36000 16.066
23.52000 16.281
23.68000 22.142
23.84000 21.279
24.00000 24.260
24.16000 24.335
24.32000 26.321
24.48000 24.000
24.64000 21.475
24.80000 21.220
24.96000 22.358
25.12000 34.360
25.28000 29.186
25.44000 30.300
25.60000 31.325
25.76000 32.377
25.92000 32.189
26.08000 25.491
26.24000 37.510
26.40000 47.510
26.56000 39.436
26.72000 37.368
26.88000 24.238
27.04000 40.652
27.20000 30.231
27.36000 43.426
27.52000 35.294
27.68000 39.421
27.84000 37.421
28.00000 35.491
28.16000 25.360
28.32000 37.542
28.48000 43.650
28.64000 23.343
28.80000 36.540
28.96000 34.576
29.12000 31.351
29.28000 40.246
29.44000 25.418
29.60000 27.409
29.76000 40.666
29.92000 19.151
30.08000 31.394
30.24000 28.357
30.40000 24.270
30.56000 19.188
30.72000 30.481
30.88000 22.209
31.04000 34.237
31.20000 20.310
31.36000 23.170
31.52000 18.323
31.68000 22.084
31.84000 14.069
32.00000 17.287
32.16000 20.195
32.32000 17.263
32.48000 19.153
32.64000 16.164
32.80000 17.325
32.96000 3.992
33.12000 16.212
33.28000 12.057
33.44000 16.337
33.60000 13.158
33.76000 14.195
33.92000 12.222
34.08000 11.138
34.24000 13.113
34.40000 12.264
34.56000 12.057
34.72000 13.064
34.88000 10.205
35.04000 11.089
35.20000 12.186
35.36000 8.149
35.52000 9.183
35.68000 18.302
35.84000 12.153
36.00000 10.229
36.16000 13.161
36.32000 17.230
36.48000 18.105
36.64000 8.120
36.80000 9.055
36.96000 14.115
37.12000 14.322
37.28000 14.308
37.44000 7.166
37.60000 16.364
37.76000 8.107
37.92000 13.154
38.08000 8.098
38.24000 13.108
38.40000 17.315
38.56000 17.403
38.72000 18.383
38.88000 10.164
39.04000 12.095
39.20000 13.211
39.36000 8.138
39.52000 12.319
39.68000 12.118
39.84000 18.244
40.00000 9.975
40.16000 8.948
40.32000 11.195
40.48000 13.998
40.64000 13.944
40.80000 7.095
40.96000 15.421
41.12000 16.082
41.28000 7.127
41.44000 10.014
41.60000 12.120
41.76000 17.131
41.92000 15.190
42.08000 16.230
42.24000 12.078
42.40000 14.223
42.56000 14.007
42.72000 13.171
42.88000 24.216
43.04000 12.052
43.20000 20.405
43.36000 9.107
43.52000 10.067
43.68000 13.166
43.84000 16.291
44.00000 12.190
44.16000 10.225
44.32000 10.154
44.48000 13.184
44.64000 10.992
44.80000 12.016
44.96000 10.184
45.12000 15.263
45.28000 5.991
45.44000 15.187
45.60000 11.035
45.76000 5.995
45.92000 20.621
46.08000 23.166
46.24000 12.251
46.40000 16.259
46.56000 15.351
46.72000 8.042
46.88000 14.064
47.04000 14.205
47.20000 16.207
47.36000 8.029
47.52000 15.119
47.68000 15.157
47.84000 9.005
48.00000 14.245
48.16000 12.218
48.32000 19.349
48.48000 10.149
48.64000 10.165
48.80000 9.275
48.96000 20.139
49.12000 11.068
49.28000 3.990
49.44000 10.272
49.60000 11.047
49.76000 9.089
49.92000 15.280
50.08000 11.150
50.24000 5.064
50.40000 14.236
50.56000 12.124
50.72000 12.189
50.88000 15.174
51.04000 9.106
51.20000 13.247
51.36000 12.186
51.52000 14.212
51.68000 6.156
51.84000 6.120
52.00000 6.138
52.16000 11.043
52.32000 20.380
52.48000 20.374
52.64000 10.180
52.80000 13.162
52.96000 13.129
53.12000 10.157
53.28000 11.106
53.44000 5.109
53.60000 5.116
53.76000 13.288
53.92000 8.075
54.08000 4.014
54.24000 12.109
54.40000 8.104
54.56000 12.081
54.72000 8.092
54.88000 10.098
55.04000 4.093
55.20000 8.025
55.36000 12.990
55.52000 11.060
55.68000 12.238
55.84000 9.175
56.00000 14.064
56.16000 12.203
56.32000 6.060
56.48000 5.124
56.64000 7.044
56.80000 7.068
56.96000 14.302
57.12000 9.106
57.28000 13.245
57.44000 12.349
57.60000 9.088
57.76000 8.249
57.92000 11.089
58.08000 5.996
58.24000 8.249
58.40000 4.110
58.56000 9.160
58.72000 13.274
58.88000 9.056
59.04000 6.058
59.20000 16.144
59.36000 13.169
59.52000 6.085
59.68000 9.971
59.84000 10.279
60.00000 9.123
60.16000 9.337
60.32000 3.051
60.48000 10.186
60.64000 8.179
60.80000 10.168
60.96000 5.197
61.12000 6.161
61.28000 14.284
61.44000 10.192
61.60000 8.155
61.76000 10.005
61.92000 7.131
62.08000 3.042
62.24000 10.143
62.40000 7.114
62.56000 6.115
62.72000 7.032
62.88000 5.082
63.04000 4.114
63.20000 4.082
63.36000 8.152
63.52000 15.108
63.68000 4.101
63.84000 9.012
64.00000 7.167
64.16000 2.067
64.32000 8.091
64.48000 5.047
64.64000 3.046
64.80000 9.178
64.96000 6.186
65.00000 9.135

File: 01092025_BTO_omega_1_001_28_37-500_0-000.xy
20.00000 14.241
20.16000 13.202
20.32000 19.338
20.48000 20.406
20.64000 15.256
20.80000 14.259
20.96000 25.176
21.12000 14.139
21.28000 17.154
21.44000 22.208
21.60000 13.071
21.76000 17.356
21.92000 13.162
22.08000 14.192
22.24000 18.261
22.40000 18.240
22.56000 19.149
22.72000 18.260
22.88000 18.128
23.04000 20.312
23.20000 25.428
23.36000 26.106
23.52000 26.415
23.68000 18.315
23.84000 22.437
24.00000 25.191
24.16000 20.361
24.32000 18.424
24.48000 24.182
24.64000 25.386
24.80000 20.100
24.96000 23.420
25.12000 28.046
25.28000 29.448
25.44000 34.540
25.60000 26.360
25.76000 34.490
25.92000 34.367
26.08000 22.222
26.24000 37.513
26.40000 32.375
26.56000 31.466
26.72000 46.703
26.88000 42.498
27.04000 34.169
27.20000 34.367
27.36000 26.159
27.52000 30.256
27.68000 32.450
27.84000 31.474
28.00000 40.656
28.16000 50.632
28.32000 29.405
28.48000 32.269
28.64000 23.201
28.80000 19.258
28.96000 21.092
29.12000 33.399
29.28000 28.283
29.44000 39.500
29.60000 36.734
29.76000 37.579
29.92000 26.221
30.08000 31.337
30.24000 33.312
30.40000 27.350
30.56000 24.398
30.72000 19.060
30.88000 13.211
31.04000 20.222
31.20000 20.295
31.36000 18.195
31.52000 18.384
31.68000 21.401
31.84000 7.041
32.00000 14.988
32.16000 19.139
32.32000 21.435
32.48000 17.191
32.64000 15.123
32.80000 7.068
32.96000 21.280
33.12000 16.255
33.28000 13.227
33.44000 13.189
33.60000 12.124
33.76000 15.299
33.92000 18.236
34.08000 12.119
34.24000 14.254
34.40000 9.247
34.56000 11.207
34.72000 9.135
34.88000 9.071
35.04000 10.154
35.20000 11.170
35.36000 9.087
35.52000 11.106
35.68000 12.042
35.84000 8.107
36.00000 15.191
36.16000 8.214
36.32000 16.286
36.48000 13.185
36.64000 7.172
36.80000 10.147
36.96000 14.317
37.12000 14.157
37.28000 11.155
37.44000 10.062
37.60000 13.058
37.76000 15.177
37.92000 14.120
38.08000 9.177
38.24000 14.148
38.40000 13.192
38.56000 16.196
38.72000 12.103
38.88000 7.104
39.04000 18.317
39.20000 19.433
39.36000 13.273
39.52000 10.213
39.68000 11.151
39.84000 12.232
40.00000 17.399
40.16000 9.048
40.32000 8.069
40.48000 9.091
40.64000 10.122
40.80000 9.118
40.96000 16.166
41.12000 6.088
41.28000 11.173
41.44000 12.055
41.60000 4.999
41.76000 13.208
41.92000 12.090
42.08000 11.056
42.24000 7.059
42.40000 16.236
42.56000 16.223
42.72000 18.339
42.88000 8.185
43.04000 19.234
43.20000 11.086
43.36000 20.251
43.52000 11.149
43.68000 19.382
43.84000 17.190
44.00000 13.226
44.16000 19.229
44.32000 11.162
44.48000 9.274
44.64000 11.178
44.80000 20.349
44.96000 19.122
45.12000 11.242
45.28000 9.070
45.44000 17.176
45.60000 14.196
45.76000 11.133
45.92000 11.262
46.08000 14.120
46.24000 12.149
46.40000 15.209
46.56000 13.205
46.72000 15.157
46.88000 8.063
47.04000 15.168
47.20000 12.023
47.36000 10.125
47.52000 16.244
47.68000 15.266
47.84000 17.291
48.00000 6.221
48.16000 7.087
48.32000 10.158
48.48000 10.145
48.64000 9.053
48.80000 17.306
48.96000 11.065
49.12000 12.138
49.28000 7.165
49.44000 9.014
49.60000 9.163
49.76000 14.002
49.92000 15.207
50.08000 10.069
50.24000 15.264
50.40000 10.102
50.56000 12.122
50.72000 12.126
50.88000 13.140
51.04000 13.096
51.20000 14.238
51.36000 11.203
51.52000 8.151
51.68000 14.234
51.84000 8.175
52.00000 12.152
52.16000 6.043
52.32000 11.266
52.48000 11.002
52.64000 7.911
52.80000 13.213
52.96000 10.232
53.12000 7.042
53.28000 10.145
53.44000 11.029
53.60000 7.096
53.76000 14.167
53.92000 7.050
54.08000 4.113
54.24000 13.104
54.40000 6.114
54.56000 5.997
54.72000 11.191
54.88000 14.389
55.04000 10.134
55.20000 12.158
55.36000 6.029
55.52000 9.164
55.68000 9.232
55.84000 12.197
56.00000 6.974
56.16000 6.057
56.32000 7.029
56.48000 6.050
56.64000 11.126
56.80000 9.979
56.96000 10.152
57.12000 6.185
57.28000 10.138
57.44000 7.116
57.60000 7.142
57.76000 3.019
57.92000 8.055
58.08000 10.126
58.24000 8.181
58.40000 13.106
58.56000 6.102
58.72000 10.042
58.88000 12.061
59.04000 3.008
59.20000 6.080
59.36000 4.997
59.52000 5.038
59.68000 8.115
59.84000 6.919
60.00000 4.023
60.16000 6.108
60.32000 12.153
60.48000 7.988
60.64000 12.175
60.80000 8.988
60.96000 4.060
61.12000 10.129
61.28000 8.102
61.44000 12.348
61.60000 3.034
61.76000 7.156
61.92000 5.158
62.08000 6.126
62.24000 2.044
62.40000 6.139
62.56000 6.191
62.72000 11.135
62.88000 6.080
63.04000 5.062
63.20000 3.994
63.36000 3.021
63.52000 7.142
63.68000 10.097
63.84000 8.019
64.00000 9.119
64.16000 9.191
64.32000 6.144
64.48000 2.022
64.64000 7.075
64.80000 5.051
64.96000 4.065
65.00000 2.023

File: 01092025_BTO_omega_1_001_33_-50-000_0-000.xy
20.00000 11.264
20.16000 16.021
20.32000 10.125
20.48000 18.158
20.64000 15.226
20.80000 9.020
20.96000 10.195
21.12000 12.261
21.28000 14.090
21.44000 14.106
21.60000 14.254
21.76000 8.133
21.92000 6.090
22.08000 10.151
22.24000 11.294
22.40000 8.127
22.56000 5.061
22.72000 8.126
22.88000 5.090
23.04000 5.967
23.20000 14.264
23.36000 5.017
23.52000 6.108
23.68000 9.151
23.84000 6.032
24.00000 7.038
24.16000 12.241
24.32000 6.073
24.48000 7.047
24.64000 14.165
24.80000 8.111
24.96000 8.042
25.12000 10.090
25.28000 9.060
25.44000 8.018
25.60000 8.088
25.76000 9.164
25.92000 6.300
26.08000 3.078
26.24000 11.063
26.40000 3.017
26.56000 6.195
26.72000 4.038
26.88000 9.199
27.04000 3.097
27.20000 4.041
27.36000 6.099
27.52000 6.029
27.68000 9.230
27.84000 1.997
28.00000 8.055
28.16000 15.123
28.32000 2.999
28.48000 6.132
28.64000 5.028
28.80000 7.156
28.96000 8.073
29.12000 2.980
29.28000 1.000
29.44000 9.127
29.60000 5.112
29.76000 2.031
29.92000 4.141
30.08000 1.060
30.24000 8.179
30.40000 8.079
30.56000 4.058
30.72000 0.000
30.88000 5.019
31.04000 6.025
31.20000 2.977
31.36000 7.079
31.52000 6.079
31.68000 2.023
31.84000 6.116
32.00000 7.156
32.16000 4.056
32.32000 8.012
32.48000 2.012
32.64000 4.017
32.80000 3.973
32.96000 5.025
33.12000 3.038
33.28000 13.069
33.44000 2.084
33.60000 3.032
33.76000 1.000
33.92000 2.035
34.08000 1.027
34.24000 9.129
34.40000 5.114
34.56000 2.994
34.72000 4.119
34.88000 6.160
35.04000 0.974
35.20000 5.120
35.36000 3.036
35.52000 0.974
35.68000 2.988
35.84000 2.059
36.00000 7.073
36.16000 6.086
36.32000 3.031
36.48000 3.009
36.64000 2.019
36.80000 6.051
36.96000 3.023
37.12000 6.135
37.28000 3.038
37.44000 1.033
37.60000 2.051
37.76000 1.055
37.92000 3.104
38.08000 4.049
38.24000 0.987
38.40000 3.029
38.56000 3.049
38.72000 2.036
38.88000 0.984
39.04000 0.000
39.20000 5.053
39.36000 5.093
39.52000 0.000
39.68000 3.072
39.84000 1.983
40.00000 6.124
40.16000 3.000
40.32000 2.015
40.48000 5.098
40.64000 4.010
40.80000 0.000
40.96000 0.000
41.12000 0.000
41.28000 3.049
41.44000 3.031
41.60000 0.993
41.76000 1.999
41.92000 1.041
42.08000 2.009
42.24000 4.025
42.40000 4.032
42.56000 4.099
42.72000 1.995
42.88000 1.021
43.04000 1.010
43.20000 4.007
43.36000 5.046
43.52000 4.051
43.68000 4.999
43.84000 4.062
44.00000 5.038
44.16000 4.064
44.32000 2.939
44.48000 6.045
44.64000 2.018
44.80000 2.020
44.96000 4.102
45.12000 0.994
45.28000 0.998
45.44000 2.025
45.60000 3.089
45.76000 2.017
45.92000 4.003
46.08000 2.071
46.24000 4.115
46.40000 1.975
46.56000 5.091
46.72000 6.034
46.88000 4.096
47.04000 1.031
47.20000 3.069
47.36000 2.019
47.52000 1.997
47.68000 3.019
47.84000 5.077
48.00000 1.064
48.16000 2.007
48.32000 6.038
48.48000 2.025
48.64000 1.005
48.80000 1.008
48.96000 2.054
49.12000 1.012
49.28000 3.010
49.44000 4.019
49.60000 3.060
49.76000 2.073
49.92000 2.057
50.08000 1.047
50.24000 1.017
50.40000 3.018
50.56000 0.000
50.72000 5.026
50.88000 2.044
51.04000 1.044
51.20000 2.010
51.36000 1.002
51.52000 1.988
51.68000 0.000
51.84000 2.028
52.00000 5.125
52.16000 6.050
52.32000 1.989
52.48000 1.025
52.64000 2.012
52.80000 1.040
52.96000 3.079
53.12000 3.067
53.28000 1.996
53.44000 1.986
53.60000 5.073
53.76000 3.042
53.92000 4.020
54.08000 2.968
54.24000 6.038
54.40000 1.024
54.56000 1.063
54.72000 3.016
54.88000 4.021
55.04000 2.137
55.20000 0.000
55.36000 3.087
55.52000 1.018
55.68000 1.010
55.84000 1.978
56.00000 6.141
56.16000 2.026
56.32000 2.029
56.48000 0.995
56.64000 0.000
56.80000 0.000
56.96000 3.028
57.12000 4.951
57.28000 2.993
57.44000 5.028
57.60000 3.018
57.76000 1.985
57.92000 2.000
58.08000 1.987
58.24000 1.033
58.40000 0.000
58.56000 2.111
58.72000 2.058
58.88000 1.003
59.04000 1.995
59.20000 5.067
59.36000 1.977
59.52000 1.007
59.68000 2.037
59.84000 3.980
60.00000 1.056
60.16000 0.000
60.32000 1.993
60.48000 3.063
60.64000 0.000
60.80000 1.024
60.96000 2.082
61.12000 0.994
61.28000 2.984
61.44000 3.043
61.60000 0.000
61.76000 2.009
61.92000 4.063
62.08000 0.000
62.24000 1.021
62.40000 0.990
62.56000 1.043
62.72000 2.033
62.88000 1.038
63.04000 5.088
63.20000 4.021
63.36000 1.028
63.52000 4.097
63.68000 1.048
63.84000 2.052
64.00000 1.012
64.16000 1.008
64.32000 2.083
64.48000 0.000
64.64000 0.000
64.80000 0.000
64.96000 0.000
65.00000 3.103

File: 01092025_BTO_omega_1_001_34_11-262_5-424.xy
20.00000 23.296
20.16000 13.213
20.32000 18.245
20.48000 17.186
20.64000 10.284
20.80000 13.260
20.96000 16.153
21.12000 18.373
21.28000 17.364
21.44000 16.267
21.60000 20.110
21.76000 15.243
21.92000 14.160
22.08000 15.106
22.24000 22.403
22.40000 24.316
22.56000 18.166
22.72000 24.329
22.88000 24.540
23.04000 34.396
23.20000 21.450
23.36000 22.250
23.52000 24.367
23.68000 25.284
23.84000 20.201
24.00000 27.232
24.16000 24.405
24.32000 25.416
24.48000 27.533
24.64000 20.110
24.80000 34.276
24.96000 29.426
25.12000 27.300
25.28000 33.183
25.44000 43.402
25.60000 37.602
25.76000 42.272
25.92000 40.820
26.08000 38.606
26.24000 32.546
26.40000 41.532
26.56000 54.604
26.72000 35.497
26.88000 58.991
27.04000 62.528
27.20000 54.824
27.36000 52.514
27.52000 56.825
27.68000 37.397
27.84000 37.465
28.00000 61.828
28.16000 44.314
28.32000 51.958
28.48000 39.249
28.64000 38.613
28.80000 49.526
28.96000 56.011
29.12000 28.623
29.28000 36.473
29.44000 33.519
29.60000 51.771
29.76000 54.857
29.92000 36.278
30.08000 36.486
30.24000 35.218
30.40000 26.202
30.56000 21.096
30.72000 29.535
30.88000 34.245
31.04000 27.237
31.20000 24.185
31.36000 21.209
31.52000 26.349
31.68000 22.512
31.84000 21.213
32.00000 33.592
32.16000 27.533
32.32000 19.230
32.48000 23.403
32.64000 25.396
32.80000 23.338
32.96000 16.081
33.12000 18.334
33.28000 18.265
33.44000 19.258
33.60000 14.198
33.76000 15.237
33.92000 7.097
34.08000 15.100
34.24000 17.278
34.40000 15.082
34.56000 19.079
34.72000 13.253
34.88000 16.147
35.04000 18.035
35.20000 19.436
35.36000 16.078
35.52000 12.178
35.68000 23.307
35.84000 14.334
36.00000 19.379
36.16000 7.125
36.32000 8.103
36.48000 19.260
36.64000 16.153
36.80000 21.249
36.96000 15.161
37.12000 18.523
37.28000 12.177
37.44000 20.258
37.60000 19.445
37.76000 18.145
37.92000 15.156
38.08000 23.356
38.24000 12.117
38.40000 19.170
38.56000 20.480
38.72000 15.196
38.88000 19.280
39.04000 16.271
39.20000 23.251
39.36000 13.219
39.52000 22.180
39.68000 19.304
39.84000 18.183
40.00000 21.146
40.16000 13.125
40.32000 16.494
40.48000 17.363
40.64000 24.117
40.80000 16.200
40.96000 14.062
41.12000 19.183
41.28000 16.126
41.44000 13.167
41.60000 11.233
41.76000 17.219
41.92000 16.984
42.08000 20.317
42.24000 11.052
42.40000 16.239
42.56000 18.268
42.72000 25.268
42.88000 13.257
43.04000 23.216
43.20000 23.114
43.36000 19.226
43.52000 18.179
43.68000 21.024
43.84000 16.915
44.00000 16.187
44.16000 22.295
44.32000 15.096
44.48000 23.173
44.64000 22.190
44.80000 21.179
44.96000 19.095
45.12000 16.275
45.28000 17.062
45.44000 23.171
45.60000 15.173
45.76000 26.297
45.92000 20.271
46.08000 14.132
46.24000 23.217
46.40000 18.254
46.56000 20.233
46.72000 17.188
46.88000 18.028
47.04000 11.311
47.20000 14.343
47.36000 11.128
47.52000 16.118
47.68000 16.278
47.84000 22.310
48.00000 13.242
48.16000 18.246
48.32000 15.227
48.48000 17.117
48.64000 20.364
48.80000 10.060
48.96000 11.008
49.12000 19.216
49.28000 18.274
49.44000 19.285
49.60000 13.252
49.76000 17.183
49.92000 14.417
50.08000 18.389
50.24000 17.282
50.40000 12.136
50.56000 16.307
50.72000 16.291
50.88000 15.332
51.04000 22.365
51.20000 8.092
51.36000 7.090
51.52000 17.140
51.68000 11.119
51.84000 20.204
52.00000 16.237
52.16000 15.237
52.32000 19.221
52.48000 18.238
52.64000 17.437
52.80000 13.148
52.96000 14.184
53.12000 19.292
53.28000 13.230
53.44000 17.159
53.60000 14.049
53.76000 18.249
53.92000 9.135
54.08000 11.090
54.24000 16.302
54.40000 9.199
54.56000 18.349
54.72000 10.056
54.88000 12.127
55.04000 7.077
55.20000 10.078
55.36000 14.106
55.52000 14.124
55.68000 9.136
55.84000 17.179
56.00000 18.297
56.16000 7.128
56.32000 15.214
56.48000 9.185
56.64000 19.236
56.80000 17.249
56.96000 12.142
57.12000 8.103
57.28000 17.277
57.44000 9.162
57.60000 9.118
57.76000 9.131
57.92000 12.182
58.08000 19.239
58.24000 14.036
58.40000 14.102
58.56000 6.983
58.72000 9.069
58.88000 12.212
59.04000 9.119
59.20000 10.142
59.36000 13.303
59.52000 15.259
59.68000 10.208
59.84000 10.155
60.00000 11.175
60.16000 8.025
60.32000 12.144
60.48000 6.079
60.64000 6.136
60.80000 9.126
60.96000 4.116
61.12000 16.263
61.28000 9.062
61.44000 5.093
61.60000 16.350
61.76000 14.303
61.92000 8.170
62.08000 10.088
62.24000 8.155
62.40000 13.007
62.56000 11.234
62.72000 13.209
62.88000 11.111
63.04000 14.320
63.20000 9.091
63.36000 10.080
63.52000 7.081
63.68000 8.096
63.84000 9.198
64.00000 10.187
64.16000 7.161
64.32000 9.036
64.48000 11.222
64.64000 4.037
64.80000 7.071
64.96000 7.041
65.00000 10.118

File: 01092025_BTO_omega_1_001_35_-11-262_5-424.xy
20.00000 16.115
20.16000 18.165
20.32000 15.044
20.48000 20.302
20.64000 18.202
20.80000 18.319
20.96000 12.233
21.12000 21.385
21.28000 25.239
21.44000 24.140
21.60000 18.093
21.76000 14.275
21.92000 20.388
22.08000 21.330
22.24000 18.132
22.40000 18.266
22.56000 16.107
22.72000 15.179
22.88000 17.390
23.04000 20.076
23.20000 24.161
23.36000 22.426
23.52000 32.479
23.68000 15.219
23.84000 25.266
24.00000 28.331
24.16000 23.260
24.32000 28.331
24.48000 27.362
24.64000 24.205
24.80000 29.481
24.96000 35.572
25.12000 32.455
25.28000 28.512
25.44000 32.238
25.60000 36.297
25.76000 34.311
25.92000 42.534
26.08000 35.540
26.24000 40.616
26.40000 43.561
26.56000 40.466
26.72000 49.604
26.88000 48.429
27.04000 54.421
27.20000 49.380
27.36000 54.482
27.52000 34.546
27.68000 50.773
27.84000 47.690
28.00000 48.587
28.16000 36.235
28.32000 36.861
28.48000 33.599
28.64000 42.529
28.80000 42.517
28.96000 40.389
29.12000 30.469
29.28000 35.317
29.44000 28.403
29.60000 31.575
29.76000 26.391
29.92000 47.482
30.08000 32.651
30.24000 28.504
30.40000 24.343
30.56000 34.633
30.72000 17.213
30.88000 30.360
31.04000 28.484
31.20000 27.384
31.36000 25.410
31.52000 24.424
31.68000 20.188
31.84000 31.474
32.00000 23.387
32.16000 23.328
32.32000 26.233
32.48000 32.641
32.64000 22.277
32.80000 19.362
32.96000 16.215
33.12000 25.195
33.28000 13.087
33.44000 13.234
33.60000 22.263
33.76000 17.159
33.92000 13.151
34.08000 15.048
34.24000 23.426
34.40000 10.164
34.56000 22.439
34.72000 15.407
34.88000 12.262
35.04000 17.091
35.20000 15.171
35.36000 14.067
35.52000 21.030
35.68000 13.110
35.84000 12.124
36.00000 12.205
36.16000 17.326
36.32000 11.177
36.48000 17.301
36.64000 6.062
36.80000 13.160
36.96000 15.143
37.12000 13.150
37.28000 13.224
37.44000 18.237
37.60000 13.246
37.76000 21.570
37.92000 14.097
38.08000 15.275
38.24000 13.250
38.40000 19.223
38.56000 17.206
38.72000 20.345
38.88000 23.160
39.04000 16.373
39.20000 15.221
39.36000 19.398
39.52000 21.418
39.68000 14.234
39.84000 16.344
40.00000 19.298
40.16000 17.287
40.32000 21.138
40.48000 18.291
40.64000 17.285
40.80000 6.120
40.96000 19.383
41.12000 22.419
41.28000 21.136
41.44000 10.162
41.60000 17.263
41.76000 18.129
41.92000 27.269
42.08000 20.578
42.24000 19.493
42.40000 23.220
42.56000 27.126
42.72000 19.249
42.88000 19.282
43.04000 16.953
43.20000 26.238
43.36000 19.068
43.52000 16.218
43.68000 25.538
43.84000 11.102
44.00000 11.064
44.16000 21.268
44.32000 24.180
44.48000 13.027
44.64000 13.127
44.80000 13.265
44.96000 15.169
45.12000 19.385
45.28000 18.243
45.44000 19.290
45.60000 19.339
45.76000 15.004
45.92000 21.306
46.08000 17.224
46.24000 16.298
46.40000 31.359
46.56000 16.273
46.72000 20.025
46.88000 14.098
47.04000 25.106
47.20000 22.323
47.36000 14.222
47.52000 21.267
47.68000 21.233
47.84000 17.418
48.00000 16.219
48.16000 14.128
48.32000 15.272
48.48000 19.158
48.64000 17.285
48.80000 14.072
48.96000 16.128
49.12000 26.217
49.28000 6.074
49.44000 11.064
49.60000 15.315
49.76000 16.476
49.92000 15.278
50.08000 20.259
50.24000 10.161
50.40000 16.047
50.56000 16.232
50.72000 18.417
50.88000 12.257
51.04000 12.192
51.20000 12.071
51.36000 13.189
51.52000 15.185
51.68000 14.267
51.84000 17.211
52.00000 11.169
52.16000 16.195
52.32000 16.265
52.48000 11.104
52.64000 18.444
52.80000 13.072
52.96000 15.264
53.12000 13.268
53.28000 18.194
53.44000 12.091
53.60000 16.129
53.76000 14.197
53.92000 17.195
54.08000 14.126
54.24000 14.228
54.40000 11.082
54.56000 16.108
54.72000 13.147
54.88000 9.148
55.04000 11.177
55.20000 11.093
55.36000 14.168
55.52000 11.175
55.68000 9.020
55.84000 17.233
56.00000 6.110
56.16000 11.046
56.32000 11.345
56.48000 16.184
56.64000 14.356
56.80000 9.074
56.96000 13.223
57.12000 9.110
57.28000 14.227
57.44000 15.078
57.60000 13.112
57.76000 16.346
57.92000 18.151
58.08000 17.221
58.24000 8.223
58.40000 14.269
58.56000 10.124
58.72000 8.083
58.88000 12.312
59.04000 4.033
59.20000 18.143
59.36000 15.153
59.52000 8.065
59.68000 13.252
59.84000 7.141
60.00000 12.060
60.16000 12.196
60.32000 10.057
60.48000 5.108
60.64000 5.084
60.80000 13.156
60.96000 14.059
61.12000 8.103
61.28000 12.141
61.44000 13.083
61.60000 8.113
61.76000 5.037
61.92000 3.056
62.08000 12.104
62.24000 12.399
62.40000 12.077
62.56000 13.298
62.72000 10.077
62.88000 14.249
63.04000 6.144
63.20000 11.034
63.36000 11.073
63.52000 9.190
63.68000 12.083
63.84000 11.063
64.00000 11.137
64.16000 8.063
64.32000 7.171
64.48000 9.103
64.64000 7.986
64.80000 7.123
64.96000 4.075
65.00000 4.960