Folder: Master-Thesis/XRD/XRD/11-09-2025/XY Data (part 5)

File: 01092025_BTO_omega_1_001_09_-5-563_-24-373.xy
20.00000 174.584
20.16000 177.226
20.32000 155.112
20.48000 159.448
20.64000 156.494
20.80000 126.225
20.96000 125.119
21.12000 129.718
21.28000 121.363
21.44000 93.928
21.60000 88.103
21.76000 99.718
21.92000 86.815
22.08000 86.627
22.24000 74.744
22.40000 67.560
22.56000 68.746
22.72000 60.939
22.88000 54.870
23.04000 55.669
23.20000 47.670
23.36000 48.545
23.52000 44.519
23.68000 36.382
23.84000 37.161
24.00000 45.437
24.16000 30.243
24.32000 34.302
24.48000 36.443
24.64000 39.245
24.80000 22.334
24.96000 25.409
25.12000 26.369
25.28000 30.197
25.44000 19.178
25.60000 14.076
25.76000 16.135
25.92000 21.324
26.08000 14.040
26.24000 9.159
26.40000 19.189
26.56000 9.041
26.72000 16.166
26.88000 10.002
27.04000 16.260
27.20000 11.167
27.36000 18.237
27.52000 12.146
27.68000 14.196
27.84000 9.106
28.00000 8.163
28.16000 16.249
28.32000 9.053
28.48000 4.993
28.64000 9.987
28.80000 6.071
28.96000 9.285
29.12000 11.171
29.28000 10.206
29.44000 14.134
29.60000 11.199
29.76000 9.083
29.92000 12.172
30.08000 14.112
30.24000 16.470
30.40000 9.042
30.56000 9.025
30.72000 11.273
30.88000 7.115
31.04000 5.001
31.20000 9.098
31.36000 7.080
31.52000 15.119
31.68000 6.146
31.84000 12.058
32.00000 6.022
32.16000 9.097
32.32000 9.108
32.48000 5.091
32.64000 10.170
32.80000 8.037
32.96000 12.182
33.12000 11.092
33.28000 4.975
33.44000 9.119
33.60000 9.126
33.76000 11.243
33.92000 5.988
34.08000 4.048
34.24000 4.131
34.40000 6.060
34.56000 10.231
34.72000 12.016
34.88000 4.070
35.04000 9.254
35.20000 10.070
35.36000 8.089
35.52000 5.987
35.68000 2.053
35.84000 4.052
36.00000 6.186
36.16000 6.167
36.32000 7.103
36.48000 6.123
36.64000 6.161
36.80000 2.016
36.96000 5.101
37.12000 10.056
37.28000 2.058
37.44000 6.978
37.60000 5.018
37.76000 3.016
37.92000 10.258
38.08000 11.049
38.24000 3.016
38.40000 3.009
38.56000 6.177
38.72000 3.046
38.88000 6.037
39.04000 5.126
39.20000 5.102
39.36000 5.085
39.52000 2.033
39.68000 3.034
39.84000 4.994
40.00000 2.042
40.16000 7.032
40.32000 4.140
40.48000 7.008
40.64000 3.061
40.80000 5.172
40.96000 1.972
41.12000 5.093
41.28000 4.953
41.44000 3.041
41.60000 1.993
41.76000 4.112
41.92000 2.086
42.08000 2.038
42.24000 3.017
42.40000 2.024
42.56000 6.068
42.72000 3.008
42.88000 6.100
43.04000 3.137
43.20000 1.017
43.36000 5.015
43.52000 5.067
43.68000 2.024
43.84000 2.023
44.00000 1.003
44.16000 1.949
44.32000 1.982
44.48000 4.125
44.64000 1.997
44.80000 4.067
44.96000 4.055
45.12000 2.050
45.28000 1.017
45.44000 3.991
45.60000 5.029
45.76000 2.047
45.92000 4.077
46.08000 2.018
46.24000 2.072
46.40000 2.001
46.56000 0.000
46.72000 0.983
46.88000 4.074
47.04000 5.067
47.20000 1.042
47.36000 3.031
47.52000 1.029
47.68000 4.172
47.84000 5.017
48.00000 3.970
48.16000 4.066
48.32000 1.037
48.48000 0.974
48.64000 4.042
48.80000 3.048
48.96000 6.106
49.12000 1.015
49.28000 6.086
49.44000 2.012
49.60000 6.225
49.76000 3.093
49.92000 2.022
50.08000 3.050
50.24000 1.014
50.40000 4.050
50.56000 3.003
50.72000 2.029
50.88000 2.085
51.04000 5.018
51.20000 0.000
51.36000 4.099
51.52000 1.989
51.68000 1.003
51.84000 2.027
52.00000 2.992
52.16000 3.021
52.32000 2.078
52.48000 5.091
52.64000 1.977
52.80000 2.018
52.96000 2.053
53.12000 3.943
53.28000 4.007
53.44000 3.071
53.60000 1.031
53.76000 3.025
53.92000 1.947
54.08000 4.021
54.24000 0.000
54.40000 2.077
54.56000 1.979
54.72000 3.057
54.88000 1.027
55.04000 3.021
55.20000 2.018
55.36000 0.000
55.52000 5.013
55.68000 0.994
55.84000 3.071
56.00000 2.001
56.16000 7.152
56.32000 3.006
56.48000 3.027
56.64000 2.032
56.80000 3.034
56.96000 1.067
57.12000 2.012
57.28000 1.025
57.44000 5.118
57.60000 3.010
57.76000 2.983
57.92000 5.112
58.08000 3.014
58.24000 7.054
58.40000 0.989
58.56000 0.993
58.72000 0.977
58.88000 3.068
59.04000 3.052
59.20000 3.025
59.36000 1.991
59.52000 1.010
59.68000 2.031
59.84000 1.045
60.00000 1.993
60.16000 3.054
60.32000 1.023
60.48000 1.005
60.64000 1.981
60.80000 4.029
60.96000 0.997
61.12000 4.100
61.28000 5.097
61.44000 4.057
61.60000 0.000
61.76000 0.993
61.92000 4.091
62.08000 2.036
62.24000 2.008
62.40000 4.055
62.56000 0.000
62.72000 3.078
62.88000 0.987
63.04000 3.924
63.20000 2.008
63.36000 1.988
63.52000 1.044
63.68000 3.949
63.84000 2.015
64.00000 0.993
64.16000 0.000
64.32000 4.064
64.48000 3.027
64.64000 1.005
64.80000 1.012
64.96000 3.039
65.00000 1.046

File: 01092025_BTO_omega_1_001_10_5-563_-24-373.xy
20.00000 175.267
20.16000 182.320
20.32000 138.225
20.48000 171.526
20.64000 148.583
20.80000 124.292
20.96000 130.060
21.12000 124.141
21.28000 135.572
21.44000 121.387
21.60000 118.922
21.76000 96.925
21.92000 95.507
22.08000 88.665
22.24000 82.848
22.40000 86.600
22.56000 67.870
22.72000 75.812
22.88000 57.490
23.04000 49.295
23.20000 54.444
23.36000 56.742
23.52000 52.610
23.68000 44.661
23.84000 37.524
24.00000 37.183
24.16000 45.422
24.32000 33.353
24.48000 28.534
24.64000 25.315
24.80000 29.378
24.96000 23.296
25.12000 24.313
25.28000 22.207
25.44000 27.360
25.60000 17.267
25.76000 19.298
25.92000 18.219
26.08000 12.214
26.24000 13.189
26.40000 21.081
26.56000 10.097
26.72000 14.297
26.88000 16.155
27.04000 12.089
27.20000 18.114
27.36000 8.017
27.52000 11.043
27.68000 12.048
27.84000 13.030
28.00000 13.109
28.16000 12.284
28.32000 11.100
28.48000 14.211
28.64000 11.163
28.80000 12.060
28.96000 11.140
29.12000 12.115
29.28000 6.117
29.44000 12.207
29.60000 5.955
29.76000 4.086
29.92000 8.081
30.08000 8.075
30.24000 11.236
30.40000 11.182
30.56000 6.007
30.72000 11.123
30.88000 6.100
31.04000 14.230
31.20000 6.035
31.36000 13.139
31.52000 8.124
31.68000 10.039
31.84000 7.096
32.00000 6.045
32.16000 9.236
32.32000 12.188
32.48000 9.108
32.64000 8.148
32.80000 10.045
32.96000 7.135
33.12000 8.208
33.28000 8.116
33.44000 5.028
33.60000 11.072
33.76000 7.086
33.92000 9.193
34.08000 6.053
34.24000 6.110
34.40000 9.131
34.56000 2.970
34.72000 6.054
34.88000 6.017
35.04000 4.134
35.20000 8.278
35.36000 7.076
35.52000 10.164
35.68000 8.053
35.84000 5.035
36.00000 3.086
36.16000 4.991
36.32000 5.945
36.48000 6.032
36.64000 3.099
36.80000 6.057
36.96000 7.099
37.12000 3.055
37.28000 6.097
37.44000 1.001
37.60000 3.053
37.76000 4.044
37.92000 6.052
38.08000 7.059
38.24000 10.091
38.40000 3.043
38.56000 2.000
38.72000 7.039
38.88000 7.055
39.04000 3.011
39.20000 6.168
39.36000 4.166
39.52000 5.086
39.68000 7.044
39.84000 3.071
40.00000 5.099
40.16000 5.113
40.32000 6.023
40.48000 3.020
40.64000 3.023
40.80000 5.027
40.96000 4.061
41.12000 6.037
41.28000 3.035
41.44000 0.000
41.60000 6.122
41.76000 3.077
41.92000 7.010
42.08000 2.988
42.24000 6.124
42.40000 4.080
42.56000 7.114
42.72000 1.082
42.88000 3.060
43.04000 5.168
43.20000 7.147
43.36000 4.041
43.52000 5.127
43.68000 3.951
43.84000 4.097
44.00000 6.020
44.16000 5.062
44.32000 3.001
44.48000 8.075
44.64000 5.039
44.80000 2.016
44.96000 2.982
45.12000 2.015
45.28000 3.035
45.44000 1.064
45.60000 0.994
45.76000 5.100
45.92000 4.018
46.08000 6.079
46.24000 2.029
46.40000 5.080
46.56000 0.978
46.72000 6.156
46.88000 2.019
47.04000 0.000
47.20000 3.005
47.36000 3.057
47.52000 6.096
47.68000 3.987
47.84000 2.029
48.00000 3.070
48.16000 2.030
48.32000 1.982
48.48000 1.008
48.64000 2.014
48.80000 3.022
48.96000 4.139
49.12000 2.022
49.28000 2.988
49.44000 4.065
49.60000 5.017
49.76000 2.072
49.92000 4.119
50.08000 2.009
50.24000 4.047
50.40000 2.044
50.56000 4.016
50.72000 2.066
50.88000 4.935
51.04000 2.981
51.20000 1.021
51.36000 2.986
51.52000 4.022
51.68000 4.154
51.84000 2.065
52.00000 0.987
52.16000 2.998
52.32000 4.072
52.48000 2.029
52.64000 4.006
52.80000 3.048
52.96000 5.004
53.12000 7.047
53.28000 2.019
53.44000 3.036
53.60000 2.006
53.76000 0.000
53.92000 2.006
54.08000 0.981
54.24000 3.057
54.40000 4.007
54.56000 2.063
54.72000 0.980
54.88000 2.068
55.04000 1.021
55.20000 4.073
55.36000 1.012
55.52000 3.057
55.68000 1.029
55.84000 4.001
56.00000 1.018
56.16000 4.083
56.32000 5.229
56.48000 0.997
56.64000 2.008
56.80000 2.024
56.96000 4.024
57.12000 4.947
57.28000 7.115
57.44000 1.045
57.60000 1.007
57.76000 4.047
57.92000 0.998
58.08000 1.069
58.24000 4.045
58.40000 5.064
58.56000 3.001
58.72000 2.028
58.88000 2.011
59.04000 2.037
59.20000 1.997
59.36000 2.012
59.52000 4.068
59.68000 1.989
59.84000 2.016
60.00000 0.000
60.16000 1.982
60.32000 0.995
60.48000 2.002
60.64000 6.192
60.80000 1.037
60.96000 0.990
61.12000 3.024
61.28000 1.048
61.44000 1.053
61.60000 0.984
61.76000 1.002
61.92000 0.000
62.08000 3.007
62.24000 2.032
62.40000 6.973
62.56000 1.995
62.72000 0.000
62.88000 2.973
63.04000 1.048
63.20000 0.000
63.36000 2.053
63.52000 3.084
63.68000 1.011
63.84000 2.996
64.00000 3.044
64.16000 0.000
64.32000 0.000
64.48000 1.028
64.64000 3.011
64.80000 4.023
64.96000 3.014
65.00000 0.000

File: 01092025_BTO_omega_1_001_11_45-048_-21-694.xy
20.00000 21.215
20.16000 18.286
20.32000 22.272
20.48000 28.569
20.64000 19.401
20.80000 16.064
20.96000 25.378
21.12000 19.251
21.28000 20.387
21.44000 14.228
21.60000 17.244
21.76000 16.248
21.92000 15.094
22.08000 11.216
22.24000 25.987
22.40000 13.141
22.56000 13.187
22.72000 22.164
22.88000 15.286
23.04000 16.254
23.20000 13.136
23.36000 19.275
23.52000 23.138
23.68000 15.169
23.84000 10.043
24.00000 8.073
24.16000 7.097
24.32000 14.201
24.48000 15.253
24.64000 9.063
24.80000 6.092
24.96000 10.271
25.12000 8.166
25.28000 13.299
25.44000 7.094
25.60000 13.263
25.76000 15.204
25.92000 11.195
26.08000 9.155
26.24000 17.096
26.40000 15.296
26.56000 15.268
26.72000 9.169
26.88000 10.157
27.04000 12.312
27.20000 2.999
27.36000 15.174
27.52000 12.109
27.68000 5.106
27.84000 17.192
28.00000 8.076
28.16000 13.229
28.32000 14.203
28.48000 10.280
28.64000 11.052
28.80000 11.142
28.96000 13.221
29.12000 10.096
29.28000 9.012
29.44000 8.332
29.60000 8.142
29.76000 12.119
29.92000 10.228
30.08000 8.183
30.24000 10.142
30.40000 3.046
30.56000 7.025
30.72000 8.078
30.88000 10.105
31.04000 10.266
31.20000 8.090
31.36000 8.172
31.52000 8.134
31.68000 11.193
31.84000 5.130
32.00000 8.141
32.16000 2.021
32.32000 6.051
32.48000 5.048
32.64000 10.028
32.80000 6.232
32.96000 9.059
33.12000 7.027
33.28000 5.027
33.44000 7.107
33.60000 13.185
33.76000 2.029
33.92000 10.190
34.08000 8.109
34.24000 5.991
34.40000 7.092
34.56000 6.025
34.72000 8.041
34.88000 7.129
35.04000 6.069
35.20000 5.076
35.36000 6.093
35.52000 3.029
35.68000 5.128
35.84000 1.043
36.00000 3.027
36.16000 2.009
36.32000 5.081
36.48000 2.043
36.64000 1.017
36.80000 5.013
36.96000 7.074
37.12000 5.074
37.28000 2.045
37.44000 7.099
37.60000 4.054
37.76000 2.037
37.92000 4.039
38.08000 2.012
38.24000 3.955
38.40000 3.038
38.56000 3.066
38.72000 2.994
38.88000 8.083
39.04000 3.049
39.20000 5.997
39.36000 7.043
39.52000 2.038
39.68000 4.996
39.84000 5.022
40.00000 4.013
40.16000 4.013
40.32000 4.995
40.48000 2.980
40.64000 4.070
40.80000 6.104
40.96000 4.033
41.12000 0.998
41.28000 1.021
41.44000 1.058
41.60000 5.149
41.76000 5.077
41.92000 1.991
42.08000 5.085
42.24000 2.051
42.40000 0.994
42.56000 2.005
42.72000 5.110
42.88000 1.022
43.04000 3.027
43.20000 4.003
43.36000 4.041
43.52000 1.007
43.68000 6.093
43.84000 2.001
44.00000 0.995
44.16000 6.084
44.32000 1.014
44.48000 5.013
44.64000 0.000
44.80000 1.019
44.96000 5.023
45.12000 3.072
45.28000 2.016
45.44000 0.000
45.60000 3.037
45.76000 4.089
45.92000 0.983
46.08000 2.006
46.24000 3.060
46.40000 1.018
46.56000 4.016
46.72000 1.985
46.88000 4.138
47.04000 4.009
47.20000 0.991
47.36000 2.037
47.52000 3.038
47.68000 5.114
47.84000 2.004
48.00000 2.015
48.16000 4.026
48.32000 2.005
48.48000 4.048
48.64000 1.014
48.80000 1.002
48.96000 1.050
49.12000 4.121
49.28000 1.984
49.44000 1.009
49.60000 2.089
49.76000 1.032
49.92000 3.050
50.08000 2.063
50.24000 0.000
50.40000 1.040
50.56000 0.000
50.72000 4.064
50.88000 2.039
51.04000 1.011
51.20000 1.010
51.36000 4.058
51.52000 2.050
51.68000 1.991
51.84000 0.975
52.00000 0.000
52.16000 3.970
52.32000 1.001
52.48000 2.017
52.64000 0.995
52.80000 2.022
52.96000 2.022
53.12000 1.022
53.28000 0.000
53.44000 0.998
53.60000 1.976
53.76000 1.040
53.92000 3.017
54.08000 2.999
54.24000 5.011
54.40000 0.991
54.56000 2.009
54.72000 0.000
54.88000 0.000
55.04000 4.092
55.20000 0.000
55.36000 2.986
55.52000 3.106
55.68000 1.021
55.84000 2.047
56.00000 1.037
56.16000 0.000
56.32000 2.998
56.48000 2.047
56.64000 0.000
56.80000 1.021
56.96000 0.989
57.12000 1.045
57.28000 0.992
57.44000 3.089
57.60000 1.056
57.76000 1.000
57.92000 1.001
58.08000 1.998
58.24000 1.041
58.40000 2.069
58.56000 0.000
58.72000 0.000
58.88000 0.999
59.04000 1.022
59.20000 1.992
59.36000 2.061
59.52000 0.000
59.68000 0.000
59.84000 0.000
60.00000 3.030
60.16000 1.035
60.32000 1.002
60.48000 1.030
60.64000 0.000
60.80000 0.000
60.96000 0.000
61.12000 2.046
61.28000 1.009
61.44000 0.999
61.60000 0.000
61.76000 3.102
61.92000 0.000
62.08000 2.971
62.24000 0.000
62.40000 2.058
62.56000 0.987
62.72000 0.000
62.88000 0.000
63.04000 1.001
63.20000 4.047
63.36000 0.000
63.52000 0.993
63.68000 1.027
63.84000 1.044
64.00000 0.000
64.16000 0.000
64.32000 0.989
64.48000 1.999
64.64000 0.000
64.80000 0.000
64.96000 0.000
65.00000 2.970

File: 01092025_BTO_omega_1_001_12_-45-048_-21-694.xy
20.00000 146.291
20.16000 147.041
20.32000 113.398
20.48000 100.079
20.64000 96.046
20.80000 98.755
20.96000 97.279
21.12000 75.633
21.28000 69.505
21.44000 81.541
21.60000 75.606
21.76000 69.778
21.92000 56.833
22.08000 58.692
22.24000 58.647
22.40000 35.583
22.56000 45.142
22.72000 35.435
22.88000 31.249
23.04000 30.301
23.20000 24.310
23.36000 28.327
23.52000 31.429
23.68000 29.340
23.84000 33.136
24.00000 19.180
24.16000 31.129
24.32000 27.302
24.48000 11.090
24.64000 16.154
24.80000 23.388
24.96000 20.283
25.12000 18.399
25.28000 19.156
25.44000 19.547
25.60000 18.169
25.76000 17.348
25.92000 19.310
26.08000 9.000
26.24000 17.472
26.40000 14.232
26.56000 12.110
26.72000 12.173
26.88000 19.284
27.04000 12.125
27.20000 12.211
27.36000 10.278
27.52000 11.196
27.68000 13.205
27.84000 9.153
28.00000 8.322
28.16000 7.201
28.32000 7.059
28.48000 16.135
28.64000 11.168
28.80000 15.247
28.96000 12.370
29.12000 17.199
29.28000 9.069
29.44000 4.019
29.60000 7.101
29.76000 11.207
29.92000 10.160
30.08000 6.082
30.24000 6.074
30.40000 7.048
30.56000 11.347
30.72000 11.015
30.88000 10.176
31.04000 11.211
31.20000 5.023
31.36000 14.230
31.52000 8.147
31.68000 11.187
31.84000 11.110
32.00000 5.042
32.16000 12.134
32.32000 10.076
32.48000 7.027
32.64000 2.996
32.80000 10.141
32.96000 8.037
33.12000 7.022
33.28000 8.098
33.44000 5.036
33.60000 7.946
33.76000 6.972
33.92000 9.143
34.08000 8.031
34.24000 5.167
34.40000 5.074
34.56000 6.056
34.72000 0.990
34.88000 5.033
35.04000 7.066
35.20000 4.039
35.36000 6.027
35.52000 5.052
35.68000 5.071
35.84000 1.000
36.00000 10.200
36.16000 6.043
36.32000 11.162
36.48000 4.033
36.64000 6.031
36.80000 6.984
36.96000 5.117
37.12000 0.991
37.28000 6.158
37.44000 8.081
37.60000 4.087
37.76000 4.987
37.92000 4.104
38.08000 5.121
38.24000 3.964
38.40000 6.135
38.56000 7.096
38.72000 3.970
38.88000 1.992
39.04000 8.142
39.20000 3.032
39.36000 8.047
39.52000 4.072
39.68000 6.054
39.84000 3.059
40.00000 2.020
40.16000 6.080
40.32000 4.094
40.48000 2.002
40.64000 4.030
40.80000 7.199
40.96000 6.077
41.12000 1.988
41.28000 3.067
41.44000 2.049
41.60000 3.050
41.76000 3.055
41.92000 3.074
42.08000 4.023
42.24000 0.000
42.40000 3.037
42.56000 5.072
42.72000 3.070
42.88000 7.076
43.04000 0.990
43.20000 2.067
43.36000 5.094
43.52000 3.979
43.68000 5.095
43.84000 3.045
44.00000 6.089
44.16000 1.034
44.32000 2.102
44.48000 1.048
44.64000 2.017
44.80000 3.008
44.96000 2.096
45.12000 2.026
45.28000 6.153
45.44000 5.087
45.60000 0.000
45.76000 1.976
45.92000 3.036
46.08000 3.035
46.24000 1.000
46.40000 2.058
46.56000 2.030
46.72000 1.015
46.88000 3.062
47.04000 1.047
47.20000 2.061
47.36000 3.980
47.52000 3.042
47.68000 5.087
47.84000 3.083
48.00000 5.037
48.16000 5.127
48.32000 3.092
48.48000 2.995
48.64000 1.992
48.80000 3.003
48.96000 6.011
49.12000 3.034
49.28000 5.114
49.44000 0.990
49.60000 2.061
49.76000 3.970
49.92000 2.069
50.08000 1.032
50.24000 6.036
50.40000 1.994
50.56000 3.974
50.72000 1.024
50.88000 0.994
51.04000 0.979
51.20000 4.104
51.36000 0.990
51.52000 5.019
51.68000 6.966
51.84000 1.002
52.00000 1.019
52.16000 4.986
52.32000 4.033
52.48000 1.978
52.64000 3.119
52.80000 4.027
52.96000 5.075
53.12000 2.043
53.28000 0.000
53.44000 3.993
53.60000 2.007
53.76000 2.025
53.92000 2.963
54.08000 2.977
54.24000 5.009
54.40000 1.014
54.56000 3.987
54.72000 2.981
54.88000 1.020
55.04000 0.000
55.20000 2.030
55.36000 4.099
55.52000 1.012
55.68000 1.028
55.84000 3.057
56.00000 6.090
56.16000 2.004
56.32000 1.006
56.48000 1.976
56.64000 1.023
56.80000 0.000
56.96000 1.028
57.12000 3.032
57.28000 0.000
57.44000 0.000
57.60000 0.990
57.76000 3.985
57.92000 1.010
58.08000 4.050
58.24000 0.000
58.40000 3.026
58.56000 0.000
58.72000 0.980
58.88000 5.080
59.04000 2.035
59.20000 0.000
59.36000 3.006
59.52000 3.055
59.68000 2.028
59.84000 2.026
60.00000 2.940
60.16000 1.001
60.32000 2.074
60.48000 1.041
60.64000 3.018
60.80000 1.034
60.96000 0.000
61.12000 1.982
61.28000 1.058
61.44000 3.037
61.60000 2.029
61.76000 1.048
61.92000 3.057
62.08000 3.075
62.24000 1.988
62.40000 2.058
62.56000 2.017
62.72000 0.977
62.88000 1.043
63.04000 2.061
63.20000 1.018
63.36000 4.066
63.52000 1.051
63.68000 1.977
63.84000 1.010
64.00000 0.000
64.16000 1.003
64.32000 0.000
64.48000 2.029
64.64000 3.018
64.80000 3.022
64.96000 1.025
65.00000 2.022

File: 01092025_BTO_omega_1_001_16_-33-786_-16-271.xy
20.00000 133.641
20.16000 110.981
20.32000 117.042
20.48000 121.420
20.64000 108.182
20.80000 108.295
20.96000 79.445
21.12000 73.813
21.28000 76.382
21.44000 82.678
21.60000 84.914
21.76000 74.359
21.92000 54.705
22.08000 45.433
22.24000 61.323
22.40000 42.484
22.56000 47.492
22.72000 48.277
22.88000 44.694
23.04000 45.732
23.20000 41.383
23.36000 49.498
23.52000 33.407
23.68000 22.213
23.84000 32.405
24.00000 30.439
24.16000 28.496
24.32000 26.159
24.48000 17.998
24.64000 24.345
24.80000 14.051
24.96000 15.277
25.12000 14.111
25.28000 25.545
25.44000 18.257
25.60000 22.180
25.76000 27.272
25.92000 11.162
26.08000 18.084
26.24000 10.108
26.40000 16.242
26.56000 16.248
26.72000 16.160
26.88000 11.143
27.04000 13.216
27.20000 12.159
27.36000 16.276
27.52000 12.151
27.68000 15.349
27.84000 15.119
28.00000 11.028
28.16000 4.047
28.32000 10.111
28.48000 5.111
28.64000 12.153
28.80000 6.082
28.96000 8.112
29.12000 8.218
29.28000 11.253
29.44000 6.059
29.60000 10.041
29.76000 10.174
29.92000 8.152
30.08000 16.295
30.24000 16.234
30.40000 9.143
30.56000 5.035
30.72000 10.216
30.88000 12.129
31.04000 7.109
31.20000 14.106
31.36000 9.107
31.52000 7.148
31.68000 12.149
31.84000 8.152
32.00000 7.063
32.16000 9.101
32.32000 7.072
32.48000 6.140
32.64000 10.161
32.80000 10.194
32.96000 8.112
33.12000 6.086
33.28000 10.164
33.44000 9.069
33.60000 8.095
33.76000 11.141
33.92000 5.086
34.08000 7.045
34.24000 9.053
34.40000 6.175
34.56000 5.131
34.72000 3.037
34.88000 5.072
35.04000 6.047
35.20000 10.231
35.36000 3.039
35.52000 7.055
35.68000 3.037
35.84000 7.059
36.00000 6.211
36.16000 2.073
36.32000 2.049
36.48000 6.097
36.64000 5.063
36.80000 2.997
36.96000 5.012
37.12000 5.125
37.28000 8.157
37.44000 1.986
37.60000 7.120
37.76000 4.120
37.92000 4.034
38.08000 2.951
38.24000 6.124
38.40000 6.085
38.56000 3.010
38.72000 2.059
38.88000 5.202
39.04000 4.091
39.20000 10.129
39.36000 8.047
39.52000 7.241
39.68000 10.050
39.84000 3.040
40.00000 6.094
40.16000 4.073
40.32000 5.020
40.48000 4.076
40.64000 5.063
40.80000 5.112
40.96000 4.030
41.12000 5.129
41.28000 2.076
41.44000 2.013
41.60000 4.072
41.76000 3.076
41.92000 9.042
42.08000 5.107
42.24000 7.163
42.40000 2.034
42.56000 5.070
42.72000 4.159
42.88000 8.072
43.04000 3.033
43.20000 4.049
43.36000 4.075
43.52000 3.043
43.68000 0.000
43.84000 2.032
44.00000 3.025
44.16000 6.119
44.32000 1.045
44.48000 1.990
44.64000 2.038
44.80000 4.019
44.96000 6.062
45.12000 3.111
45.28000 8.229
45.44000 5.104
45.60000 9.079
45.76000 1.072
45.92000 1.005
46.08000 5.016
46.24000 7.066
46.40000 2.979
46.56000 2.971
46.72000 3.038
46.88000 2.026
47.04000 5.063
47.20000 6.045
47.36000 3.034
47.52000 2.034
47.68000 4.000
47.84000 3.086
48.00000 7.108
48.16000 2.023
48.32000 2.041
48.48000 2.994
48.64000 4.055
48.80000 2.021
48.96000 5.110
49.12000 4.972
49.28000 2.044
49.44000 2.058
49.60000 2.991
49.76000 4.110
49.92000 6.013
50.08000 0.983
50.24000 4.081
50.40000 3.010
50.56000 2.966
50.72000 3.024
50.88000 6.981
51.04000 0.000
51.20000 2.030
51.36000 5.093
51.52000 2.033
51.68000 2.033
51.84000 2.024
52.00000 2.002
52.16000 4.037
52.32000 5.037
52.48000 0.995
52.64000 2.017
52.80000 3.021
52.96000 0.987
53.12000 1.019
53.28000 1.011
53.44000 2.045
53.60000 3.045
53.76000 4.048
53.92000 2.026
54.08000 0.000
54.24000 4.078
54.40000 3.969
54.56000 2.043
54.72000 2.019
54.88000 0.000
55.04000 3.013
55.20000 3.011
55.36000 1.039
55.52000 2.997
55.68000 1.999
55.84000 3.023
56.00000 0.994
56.16000 1.988
56.32000 0.984
56.48000 2.029
56.64000 2.028
56.80000 1.954
56.96000 0.998
57.12000 3.056
57.28000 2.999
57.44000 0.000
57.60000 2.038
57.76000 1.039
57.92000 2.066
58.08000 5.019
58.24000 0.967
58.40000 3.964
58.56000 0.000
58.72000 0.982
58.88000 0.000
59.04000 3.981
59.20000 0.987
59.36000 1.982
59.52000 4.103
59.68000 5.033
59.84000 0.000
60.00000 3.035
60.16000 3.981
60.32000 2.053
60.48000 1.989
60.64000 0.000
60.80000 3.010
60.96000 2.024
61.12000 4.126
61.28000 3.036
61.44000 2.052
61.60000 2.028
61.76000 3.052
61.92000 1.025
62.08000 3.069
62.24000 2.053
62.40000 1.022
62.56000 1.996
62.72000 3.008
62.88000 1.038
63.04000 0.983
63.20000 2.020
63.36000 0.000
63.52000 3.064
63.68000 4.017
63.84000 4.057
64.00000 1.998
64.16000 2.007
64.32000 1.037
64.48000 1.986
64.64000 4.059
64.80000 0.000
64.96000 2.028
65.00000 5.022