Folder: Master-Thesis/XRD/17-11-2025 Crystal Plates/XY Data

File: Deposition_9-1.xy
20.00000 762.398
20.17000 788.893
20.34000 858.037
20.51000 1163.801
20.68000 1977.336
20.85000 1585.111
21.02000 1830.366
21.19000 3453.425
21.36000 12680.027
21.53000 86220.906
21.70000 60479.242
21.87000 4623.119
22.04000 1892.473
22.21000 1321.837
22.38000 1190.608
22.55000 1561.738
22.72000 23513.039
22.89000 14166.383
23.06000 1040.755
23.23000 883.738
23.40000 813.770
23.57000 786.961
23.74000 765.535
23.91000 713.903
24.08000 720.503
24.25000 700.778
24.42000 704.398
24.59000 674.766
24.76000 668.222
24.93000 668.498
25.10000 650.767
25.27000 635.005
25.44000 635.786
25.61000 605.797
25.78000 600.237
25.95000 609.623
26.12000 610.311
26.29000 609.192
26.46000 574.427
26.63000 611.977
26.80000 573.002
26.97000 561.255
27.14000 557.906
27.31000 549.711
27.48000 537.397
27.65000 548.775
27.82000 552.405
27.99000 520.944
28.16000 527.570
28.33000 530.813
28.50000 525.999
28.67000 515.470
28.84000 514.768
29.01000 499.964
29.18000 524.643
29.35000 518.919
29.52000 495.722
29.69000 476.781
29.86000 483.647
30.03000 483.161
30.20000 473.295
30.37000 471.692
30.54000 456.363
30.71000 457.586
30.88000 459.947
31.05000 478.764
31.22000 477.862
31.39000 492.358
31.56000 449.890
31.73000 452.155
31.90000 449.004
32.07000 447.827
32.24000 434.730
32.41000 438.800
32.58000 421.365
32.75000 412.121
32.92000 440.266
33.09000 432.384
33.26000 423.520
33.43000 418.306
33.60000 410.580
33.77000 421.559
33.94000 406.659
34.11000 417.670
34.28000 406.511
34.45000 399.402
34.62000 395.672
34.79000 406.170
34.96000 411.003
35.13000 401.675
35.30000 409.084
35.47000 394.746
35.64000 389.129
35.81000 394.682
35.98000 396.508
36.15000 386.818
36.32000 394.333
36.49000 384.945
36.66000 393.069
36.83000 385.160
37.00000 390.929
37.17000 396.532
37.34000 383.247
37.51000 391.612
37.68000 393.138
37.85000 381.996
38.02000 415.650
38.19000 398.770
38.36000 419.467
38.53000 414.382
38.70000 418.058
38.87000 434.448
39.04000 445.847
39.21000 484.235
39.38000 573.838
39.55000 763.526
39.72000 584.222
39.89000 513.107
40.06000 535.164
40.23000 582.242
40.40000 586.678
40.57000 606.030
40.74000 638.619
40.91000 675.427
41.08000 709.841
41.25000 808.691
41.42000 906.559
41.59000 1080.938
41.76000 1832.553
41.93000 2442.429
42.10000 2859.239
42.27000 2033.548
42.44000 2025.522
42.61000 2090.915
42.78000 2493.724
42.95000 3242.556
43.12000 4380.966
43.29000 6899.532
43.46000 12548.718
43.63000 28228.516
43.80000 76995.914
43.97000 165549.422
44.14000 90837.313
44.31000 17297.523
44.48000 8751.039
44.65000 4514.391
44.82000 3880.728
44.99000 3198.706
45.16000 3153.801
45.33000 2595.178
45.50000 2429.521
45.67000 2441.191
45.84000 2665.717
46.01000 3127.741
46.18000 6082.600
46.35000 100115.906
46.52000 280560.469
46.69000 80117.047
46.86000 4711.313
47.03000 2759.406
47.20000 2149.977
47.37000 1669.794
47.54000 1349.082
47.71000 1150.499
47.88000 978.870
48.05000 834.130
48.22000 730.888
48.39000 652.567
48.56000 570.760
48.73000 524.461
48.90000 497.041
49.07000 467.987
49.24000 429.516
49.41000 419.278
49.58000 375.823
49.75000 367.925
49.92000 339.259
50.09000 322.952
50.26000 315.934
50.43000 307.807
50.60000 301.943
50.77000 305.438
50.94000 292.287
51.11000 268.548
51.28000 274.532
51.45000 256.551
51.62000 254.075
51.79000 249.722
51.96000 233.078
52.13000 244.993
52.30000 232.968
52.47000 236.224
52.64000 217.155
52.81000 221.698
52.98000 217.654
53.15000 212.940
53.32000 211.137
53.49000 213.786
53.66000 209.182
53.83000 195.907
54.00000 201.750
54.17000 192.824
54.34000 204.553
54.51000 199.034
54.68000 204.405
54.85000 196.176
55.02000 191.613
55.19000 180.723
55.36000 183.693
55.53000 181.373
55.70000 196.714
55.87000 186.949
56.04000 184.152
56.21000 181.104
56.38000 179.222
56.55000 169.524
56.72000 170.380
56.89000 179.831
57.06000 169.044
57.23000 167.932
57.40000 168.667
57.57000 167.734
57.74000 175.094
57.91000 161.867
58.08000 165.234
58.25000 173.911
58.42000 171.056
58.59000 151.506
58.76000 153.029
58.93000 150.541
59.10000 158.844
59.27000 161.658
59.44000 146.571
59.61000 163.148
59.78000 163.875
59.95000 153.262
60.12000 142.240
60.29000 152.982
60.46000 160.864
60.63000 145.244
60.80000 151.266
60.97000 157.817
61.14000 164.761
61.31000 149.165
61.48000 143.399
61.65000 147.439
61.82000 146.654
61.99000 143.479
62.16000 144.740
62.33000 148.471
62.50000 163.524
62.67000 136.508
62.84000 142.760
63.01000 140.099
63.18000 139.000
63.35000 141.925
63.52000 147.332
63.69000 142.034
63.86000 139.813
64.03000 152.406
64.20000 154.598
64.37000 150.815
64.54000 151.203
64.71000 162.238
64.88000 154.769
65.05000 178.982
65.22000 172.456
65.39000 166.266
65.56000 155.089
65.73000 154.502
65.90000 168.363
66.07000 162.234
66.24000 179.142
66.41000 179.661
66.58000 180.115
66.75000 196.841
66.92000 205.388
67.09000 230.531
67.26000 261.925
67.43000 320.609
67.60000 385.171
67.77000 580.646
67.94000 854.936
68.11000 1518.292
68.28000 2612.993
68.45000 2363.526
68.62000 1210.633
68.79000 490.711
68.96000 342.099
69.13000 361.064
69.30000 257.767
69.47000 236.295
69.64000 224.681
69.81000 219.663
69.98000 203.366
70.00000 206.917

File: Deposition_10-1.xy
20.00000 754.984
20.17000 756.452
20.34000 811.669
20.51000 911.239
20.68000 1184.520
20.85000 1534.120
21.02000 1537.688
21.19000 2206.083
21.36000 4466.000
21.53000 11758.072
21.70000 54159.754
21.87000 21865.023
22.04000 2137.525
22.21000 1334.797
22.38000 1211.313
22.55000 1839.847
22.72000 36345.426
22.89000 19689.850
23.06000 1136.824
23.23000 881.522
23.40000 787.101
23.57000 745.262
23.74000 710.285
23.91000 696.554
24.08000 679.087
24.25000 673.747
24.42000 648.506
24.59000 622.581
24.76000 633.616
24.93000 604.513
25.10000 597.666
25.27000 594.027
25.44000 601.651
25.61000 632.908
25.78000 596.310
25.95000 589.224
26.12000 578.953
26.29000 556.631
26.46000 571.195
26.63000 552.754
26.80000 561.827
26.97000 554.452
27.14000 555.569
27.31000 530.278
27.48000 559.003
27.65000 546.766
27.82000 525.887
27.99000 536.402
28.16000 530.425
28.33000 518.167
28.50000 506.902
28.67000 512.433
28.84000 499.010
29.01000 504.134
29.18000 514.781
29.35000 504.634
29.52000 480.703
29.69000 520.911
29.86000 485.587
30.03000 465.191
30.20000 465.407
30.37000 469.546
30.54000 464.356
30.71000 472.493
30.88000 463.097
31.05000 462.611
31.22000 448.620
31.39000 456.719
31.56000 454.240
31.73000 445.137
31.90000 424.666
32.07000 433.775
32.24000 445.267
32.41000 422.437
32.58000 443.061
32.75000 415.026
32.92000 412.750
33.09000 428.044
33.26000 402.156
33.43000 426.179
33.60000 405.246
33.77000 407.716
33.94000 411.118
34.11000 405.547
34.28000 389.885
34.45000 395.417
34.62000 391.403
34.79000 384.024
34.96000 378.272
35.13000 385.024
35.30000 375.879
35.47000 385.021
35.64000 389.308
35.81000 392.747
35.98000 370.517
36.15000 372.847
36.32000 374.696
36.49000 385.972
36.66000 378.541
36.83000 366.065
37.00000 346.151
37.17000 370.339
37.34000 365.905
37.51000 364.903
37.68000 367.990
37.85000 357.762
38.02000 355.674
38.19000 362.122
38.36000 385.728
38.53000 371.481
38.70000 373.371
38.87000 379.997
39.04000 368.527
39.21000 378.875
39.38000 382.504
39.55000 403.083
39.72000 497.243
39.89000 525.677
40.06000 426.415
40.23000 410.423
40.40000 424.486
40.57000 423.400
40.74000 471.761
40.91000 480.948
41.08000 509.937
41.25000 517.207
41.42000 561.309
41.59000 680.010
41.76000 1192.661
41.93000 958.283
42.10000 1008.235
42.27000 1716.521
42.44000 1608.545
42.61000 1462.932
42.78000 1631.803
42.95000 2034.842
43.12000 2610.865
43.29000 3567.785
43.46000 4914.645
43.63000 6791.447
43.80000 10082.152
43.97000 17487.229
44.14000 52478.570
44.31000 90889.984
44.48000 35299.496
44.65000 6030.347
44.82000 3624.180
44.99000 2476.167
45.16000 2211.118
45.33000 2116.597
45.50000 2198.486
45.67000 2277.992
45.84000 2499.412
46.01000 3098.679
46.18000 6643.333
46.35000 126924.281
46.52000 319529.094
46.69000 84282.102
46.86000 4921.643
47.03000 2827.884
47.20000 2108.710
47.37000 1692.767
47.54000 1329.404
47.71000 1099.421
47.88000 911.566
48.05000 757.379
48.22000 656.531
48.39000 594.623
48.56000 545.911
48.73000 496.184
48.90000 455.961
49.07000 410.006
49.24000 387.683
49.41000 363.034
49.58000 340.187
49.75000 335.673
49.92000 330.432
50.09000 303.653
50.26000 297.106
50.43000 287.750
50.60000 281.561
50.77000 288.002
50.94000 290.315
51.11000 269.306
51.28000 242.293
51.45000 246.435
51.62000 235.059
51.79000 228.402
51.96000 224.653
52.13000 221.851
52.30000 231.215
52.47000 223.994
52.64000 229.547
52.81000 224.709
52.98000 201.697
53.15000 229.223
53.32000 211.854
53.49000 212.083
53.66000 200.240
53.83000 201.169
54.00000 194.517
54.17000 204.921
54.34000 184.825
54.51000 184.068
54.68000 191.286
54.85000 195.094
55.02000 203.285
55.19000 197.100
55.36000 179.256
55.53000 178.626
55.70000 173.095
55.87000 178.969
56.04000 184.792
56.21000 170.588
56.38000 177.275
56.55000 174.925
56.72000 176.473
56.89000 165.219
57.06000 170.656
57.23000 166.012
57.40000 168.614
57.57000 173.811
57.74000 156.429
57.91000 163.987
58.08000 167.077
58.25000 149.465
58.42000 165.130
58.59000 147.720
58.76000 159.165
58.93000 157.839
59.10000 156.202
59.27000 152.038
59.44000 150.448
59.61000 151.765
59.78000 154.699
59.95000 158.709
60.12000 143.146
60.29000 161.424
60.46000 148.452
60.63000 148.134
60.80000 149.197
60.97000 161.095
61.14000 155.007
61.31000 145.100
61.48000 153.213
61.65000 146.675
61.82000 138.270
61.99000 145.819
62.16000 138.693
62.33000 137.397
62.50000 140.991
62.67000 151.961
62.84000 149.347
63.01000 144.305
63.18000 144.931
63.35000 135.378
63.52000 140.465
63.69000 147.186
63.86000 135.204
64.03000 139.531
64.20000 138.596
64.37000 150.017
64.54000 144.232
64.71000 160.065
64.88000 151.467
65.05000 148.765
65.22000 140.483
65.39000 161.468
65.56000 148.381
65.73000 147.112
65.90000 152.864
66.07000 142.812
66.24000 157.589
66.41000 153.874
66.58000 159.687
66.75000 166.441
66.92000 168.121
67.09000 176.936
67.26000 185.796
67.43000 197.764
67.60000 214.725
67.77000 224.885
67.94000 260.508
68.11000 288.009
68.28000 352.655
68.45000 475.807
68.62000 805.440
68.79000 1510.854
68.96000 1362.559
69.13000 783.804
69.30000 293.268
69.47000 206.072
69.64000 215.263
69.81000 199.356
69.98000 181.002
70.00000 175.160

File: Deposition_10-2.xy
20.00000 727.577
20.17000 708.672
20.34000 739.767
20.51000 795.666
20.68000 782.098
20.85000 1058.981
21.02000 1347.396
21.19000 1277.444
21.36000 1583.638
21.53000 2606.854
21.70000 10194.994
21.87000 46862.316
22.04000 16245.038
22.21000 2108.698
22.38000 1447.622
22.55000 1975.542
22.72000 41684.301
22.89000 25608.674
23.06000 1186.349
23.23000 894.561
23.40000 758.895
23.57000 705.694
23.74000 671.350
23.91000 663.021
24.08000 641.458
24.25000 633.818
24.42000 597.991
24.59000 605.994
24.76000 606.591
24.93000 598.266
25.10000 587.085
25.27000 564.884
25.44000 570.023
25.61000 563.499
25.78000 571.523
25.95000 571.062
26.12000 538.494
26.29000 580.387
26.46000 543.614
26.63000 549.046
26.80000 547.039
26.97000 518.498
27.14000 514.310
27.31000 544.536
27.48000 521.806
27.65000 514.262
27.82000 515.732
27.99000 518.300
28.16000 535.283
28.33000 500.331
28.50000 493.074
28.67000 506.005
28.84000 475.661
29.01000 498.376
29.18000 488.152
29.35000 483.624
29.52000 476.029
29.69000 492.751
29.86000 462.578
30.03000 453.783
30.20000 473.892
30.37000 466.403
30.54000 447.839
30.71000 447.800
30.88000 441.665
31.05000 460.392
31.22000 452.669
31.39000 450.596
31.56000 439.860
31.73000 440.513
31.90000 429.572
32.07000 430.764
32.24000 413.249
32.41000 407.609
32.58000 391.261
32.75000 426.788
32.92000 407.634
33.09000 423.337
33.26000 396.145
33.43000 406.540
33.60000 381.820
33.77000 406.257
33.94000 388.337
34.11000 380.133
34.28000 397.817
34.45000 397.195
34.62000 384.208
34.79000 374.440
34.96000 390.557
35.13000 380.557
35.30000 372.599
35.47000 381.475
35.64000 386.545
35.81000 369.763
35.98000 359.620
36.15000 361.819
36.32000 366.160
36.49000 353.228
36.66000 354.751
36.83000 354.687
37.00000 351.557
37.17000 357.365
37.34000 361.468
37.51000 337.052
37.68000 352.326
37.85000 349.465
38.02000 350.542
38.19000 325.930
38.36000 360.597
38.53000 325.444
38.70000 333.772
38.87000 356.335
39.04000 346.131
39.21000 340.982
39.38000 343.771
39.55000 346.002
39.72000 336.539
39.89000 370.134
40.06000 433.322
40.23000 400.988
40.40000 349.033
40.57000 358.862
40.74000 352.502
40.91000 370.694
41.08000 379.345
41.25000 384.089
41.42000 395.878
41.59000 454.614
41.76000 1027.458
41.93000 610.109
42.10000 511.673
42.27000 569.427
42.44000 746.427
42.61000 1248.085
42.78000 1155.479
42.95000 1090.428
43.12000 1116.747
43.29000 1228.414
43.46000 1487.491
43.63000 1829.563
43.80000 2386.827
43.97000 3489.870
44.14000 5974.065
44.31000 14477.083
44.48000 45245.316
44.65000 64879.488
44.82000 23751.203
44.99000 4870.490
45.16000 2722.794
45.33000 2285.317
45.50000 2161.163
45.67000 2294.776
45.84000 2540.041
46.01000 3223.476
46.18000 7093.412
46.35000 133942.688
46.52000 374137.313
46.69000 110033.805
46.86000 5608.910
47.03000 3106.329
47.20000 2251.315
47.37000 1703.930
47.54000 1402.876
47.71000 1095.763
47.88000 903.400
48.05000 740.892
48.22000 631.394
48.39000 569.755
48.56000 490.692
48.73000 466.036
48.90000 441.910
49.07000 417.181
49.24000 382.873
49.41000 356.185
49.58000 349.470
49.75000 326.902
49.92000 309.541
50.09000 308.555
50.26000 304.470
50.43000 280.124
50.60000 269.064
50.77000 286.430
50.94000 291.153
51.11000 267.485
51.28000 256.099
51.45000 253.766
51.62000 252.273
51.79000 252.940
51.96000 240.568
52.13000 223.119
52.30000 209.290
52.47000 219.482
52.64000 214.369
52.81000 212.906
52.98000 203.981
53.15000 202.190
53.32000 194.975
53.49000 205.324
53.66000 206.221
53.83000 200.010
54.00000 189.693
54.17000 193.277
54.34000 194.004
54.51000 184.648
54.68000 195.183
54.85000 175.011
55.02000 200.786
55.19000 190.399
55.36000 179.107
55.53000 178.080
55.70000 179.823
55.87000 183.036
56.04000 177.976
56.21000 175.905
56.38000 183.187
56.55000 175.469
56.72000 167.670
56.89000 167.406
57.06000 158.684
57.23000 158.572
57.40000 163.251
57.57000 160.175
57.74000 152.650
57.91000 168.915
58.08000 156.908
58.25000 168.158
58.42000 151.115
58.59000 168.351
58.76000 161.404
58.93000 153.380
59.10000 161.318
59.27000 159.211
59.44000 150.948
59.61000 154.293
59.78000 147.258
59.95000 144.751
60.12000 145.073
60.29000 146.163
60.46000 150.965
60.63000 157.304
60.80000 138.360
60.97000 140.660
61.14000 138.420
61.31000 140.296
61.48000 147.654
61.65000 146.729
61.82000 141.633
61.99000 140.671
62.16000 141.318
62.33000 139.020
62.50000 143.895
62.67000 138.014
62.84000 139.985
63.01000 136.348
63.18000 148.567
63.35000 138.979
63.52000 134.787
63.69000 145.029
63.86000 144.349
64.03000 139.604
64.20000 138.766
64.37000 135.714
64.54000 139.213
64.71000 154.696
64.88000 139.723
65.05000 136.659
65.22000 131.062
65.39000 137.293
65.56000 134.197
65.73000 130.147
65.90000 146.571
66.07000 150.379
66.24000 140.618
66.41000 143.608
66.58000 143.704
66.75000 138.737
66.92000 138.614
67.09000 134.521
67.26000 140.271
67.43000 148.077
67.60000 149.419
67.77000 157.749
67.94000 160.611
68.11000 164.389
68.28000 179.831
68.45000 196.354
68.62000 233.507
68.79000 265.615
68.96000 421.088
69.13000 726.084
69.30000 1227.889
69.47000 1240.226
69.64000 730.400
69.81000 328.668
69.98000 211.752
70.00000 202.690

File: Deposition_10-3.xy
20.00000 727.871
20.17000 708.549
20.34000 722.552
20.51000 812.701
20.68000 794.681
20.85000 781.647
21.02000 940.861
21.19000 1013.976
21.36000 1096.013
21.53000 1566.511
21.70000 3718.239
21.87000 11303.416
22.04000 13583.986
22.21000 5174.750
22.38000 2081.614
22.55000 2359.597
22.72000 47767.457
22.89000 26592.969
23.06000 1271.854
23.23000 936.218
23.40000 833.873
23.57000 721.595
23.74000 676.314
23.91000 641.453
24.08000 648.299
24.25000 633.405
24.42000 623.529
24.59000 594.142
24.76000 595.014
24.93000 614.334
25.10000 571.933
25.27000 577.904
25.44000 570.317
25.61000 563.512
25.78000 562.266
25.95000 559.804
26.12000 548.021
26.29000 551.821
26.46000 554.113
26.63000 545.372
26.80000 531.444
26.97000 538.916
27.14000 523.370
27.31000 524.614
27.48000 512.636
27.65000 505.557
27.82000 513.409
27.99000 520.853
28.16000 514.840
28.33000 512.557
28.50000 505.570
28.67000 499.905
28.84000 494.232
29.01000 485.210
29.18000 485.397
29.35000 492.204
29.52000 456.698
29.69000 479.594
29.86000 478.582
30.03000 455.477
30.20000 464.113
30.37000 456.600
30.54000 454.432
30.71000 450.887
30.88000 457.845
31.05000 436.083
31.22000 451.297
31.39000 439.210
31.56000 440.008
31.73000 437.987
31.90000 442.074
32.07000 432.184
32.24000 416.595
32.41000 423.712
32.58000 425.057
32.75000 421.037
32.92000 425.557
33.09000 420.040
33.26000 422.481
33.43000 410.942
33.60000 406.581
33.77000 395.226
33.94000 420.147
34.11000 395.152
34.28000 394.792
34.45000 393.579
34.62000 390.038
34.79000 395.897
34.96000 373.236
35.13000 377.089
35.30000 384.609
35.47000 368.129
35.64000 369.443
35.81000 357.342
35.98000 361.864
36.15000 366.193
36.32000 362.873
36.49000 364.622
36.66000 366.561
36.83000 358.092
37.00000 367.282
37.17000 349.661
37.34000 359.430
37.51000 348.365
37.68000 336.325
37.85000 336.261
38.02000 352.448
38.19000 330.790
38.36000 356.468
38.53000 326.141
38.70000 325.827
38.87000 340.206
39.04000 317.620
39.21000 337.401
39.38000 342.633
39.55000 333.212
39.72000 326.477
39.89000 339.204
40.06000 339.012
40.23000 339.559
40.40000 330.108
40.57000 359.339
40.74000 345.646
40.91000 345.007
41.08000 341.254
41.25000 366.146
41.42000 390.903
41.59000 410.340
41.76000 948.516
41.93000 540.134
42.10000 435.333
42.27000 416.325
42.44000 462.374
42.61000 559.418
42.78000 623.561
42.95000 654.961
43.12000 677.512
43.29000 686.990
43.46000 788.235
43.63000 924.880
43.80000 1133.029
43.97000 1505.446
44.14000 2280.314
44.31000 5390.280
44.48000 10537.026
44.65000 12750.677
44.82000 15931.543
44.99000 12724.838
45.16000 7377.878
45.33000 3932.906
45.50000 2764.039
45.67000 2478.266
45.84000 2587.921
46.01000 3181.700
46.18000 7167.520
46.35000 137458.188
46.52000 359565.531
46.69000 95809.047
46.86000 5315.452
47.03000 2932.490
47.20000 2166.393
47.37000 1671.973
47.54000 1324.642
47.71000 1047.765
47.88000 840.597
48.05000 700.807
48.22000 593.548
48.39000 515.212
48.56000 460.884
48.73000 434.652
48.90000 407.408
49.07000 392.028
49.24000 371.765
49.41000 346.182
49.58000 318.057
49.75000 314.479
49.92000 292.280
50.09000 282.504
50.26000 295.076
50.43000 283.637
50.60000 291.450
50.77000 269.024
50.94000 294.822
51.11000 266.901
51.28000 235.279
51.45000 253.419
51.62000 222.779
51.79000 225.355
51.96000 228.357
52.13000 226.169
52.30000 223.724
52.47000 225.323
52.64000 212.159
52.81000 194.592
52.98000 215.292
53.15000 213.813
53.32000 207.715
53.49000 224.529
53.66000 195.852
53.83000 199.931
54.00000 196.826
54.17000 198.988
54.34000 197.148
54.51000 193.043
54.68000 205.983
54.85000 185.857
55.02000 187.576
55.19000 206.487
55.36000 217.007
55.53000 230.330
55.70000 272.800
55.87000 321.464
56.04000 309.787
56.21000 247.558
56.38000 208.462
56.55000 201.060
56.72000 190.013
56.89000 186.195
57.06000 174.971
57.23000 169.054
57.40000 164.717
57.57000 162.966
57.74000 164.671
57.91000 172.032
58.08000 166.694
58.25000 162.538
58.42000 153.991
58.59000 164.718
58.76000 164.517
58.93000 155.720
59.10000 162.301
59.27000 162.369
59.44000 155.606
59.61000 150.739
59.78000 154.353
59.95000 154.078
60.12000 149.134
60.29000 156.532
60.46000 152.766
60.63000 163.298
60.80000 151.967
60.97000 153.690
61.14000 143.062
61.31000 138.400
61.48000 148.107
61.65000 144.316
61.82000 135.648
61.99000 157.374
62.16000 146.453
62.33000 151.204
62.50000 155.502
62.67000 136.060
62.84000 149.461
63.01000 138.401
63.18000 132.006
63.35000 144.061
63.52000 140.313
63.69000 147.321
63.86000 138.096
64.03000 140.865
64.20000 136.596
64.37000 129.449
64.54000 144.049
64.71000 158.916
64.88000 128.664
65.05000 136.309
65.22000 132.232
65.39000 133.294
65.56000 150.203
65.73000 129.253
65.90000 154.890
66.07000 133.312
66.24000 136.626
66.41000 130.502
66.58000 126.800
66.75000 132.222
66.92000 136.301
67.09000 131.497
67.26000 134.311
67.43000 141.480
67.60000 123.197
67.77000 133.533
67.94000 144.741
68.11000 149.746
68.28000 148.213
68.45000 153.167
68.62000 158.359
68.79000 185.597
68.96000 245.194
69.13000 319.384
69.30000 296.136
69.47000 359.857
69.64000 421.411
69.81000 454.790
69.98000 431.571
70.00000 426.599

File: Deposition_11-1.xy
20.00000 737.824
20.17000 756.581
20.34000 791.272
20.51000 906.776
20.68000 968.947
20.85000 1513.262
21.02000 1695.899
21.19000 1914.038
21.36000 2612.098
21.53000 4122.177
21.70000 24543.672
21.87000 52581.414
22.04000 7959.634
22.21000 1767.347
22.38000 1331.366
22.55000 1919.485
22.72000 37165.742
22.89000 20038.145
23.06000 1147.550
23.23000 915.309
23.40000 783.087
23.57000 741.398
23.74000 697.766
23.91000 674.505
24.08000 661.158
24.25000 637.221
24.42000 641.474
24.59000 649.174
24.76000 638.835
24.93000 609.985
25.10000 616.298
25.27000 594.140
25.44000 607.235
25.61000 589.595
25.78000 589.925
25.95000 591.850
26.12000 587.286
26.29000 574.528
26.46000 559.223
26.63000 546.498
26.80000 546.897
26.97000 556.004
27.14000 565.297
27.31000 524.246
27.48000 530.623
27.65000 531.339
27.82000 519.349
27.99000 518.313
28.16000 530.096
28.33000 523.230
28.50000 514.426
28.67000 501.828
28.84000 493.831
29.01000 505.701
29.18000 492.845
29.35000 493.418
29.52000 470.561
29.69000 476.398
29.86000 483.643
30.03000 477.234
30.20000 472.917
30.37000 476.830
30.54000 474.453
30.71000 483.481
30.88000 446.073
31.05000 455.211
31.22000 439.644
31.39000 442.494
31.56000 457.191
31.73000 438.479
31.90000 434.778
32.07000 416.790
32.24000 434.012
32.41000 415.783
32.58000 414.153
32.75000 449.077
32.92000 432.996
33.09000 406.436
33.26000 420.661
33.43000 404.551
33.60000 415.579
33.77000 403.229
33.94000 401.149
34.11000 412.279
34.28000 404.890
34.45000 401.820
34.62000 397.441
34.79000 378.081
34.96000 378.349
35.13000 395.128
35.30000 402.194
35.47000 378.525
35.64000 380.099
35.81000 365.302
35.98000 376.430
36.15000 370.709
36.32000 378.301
36.49000 375.003
36.66000 370.949
36.83000 357.634
37.00000 355.649
37.17000 376.599
37.34000 353.742
37.51000 366.993
37.68000 365.428
37.85000 346.900
38.02000 357.152
38.19000 345.295
38.36000 366.865
38.53000 368.619
38.70000 366.526
38.87000 375.007
39.04000 374.902
39.21000 352.327
39.38000 394.233
39.55000 377.078
39.72000 401.018
39.89000 480.835
40.06000 537.317
40.23000 425.419
40.40000 413.040
40.57000 403.456
40.74000 426.487
40.91000 429.459
41.08000 471.326
41.25000 497.164
41.42000 529.689
41.59000 619.026
41.76000 1121.348
41.93000 818.459
42.10000 810.104
42.27000 985.133
42.44000 1669.635
42.61000 2070.685
42.78000 1807.422
42.95000 1909.108
43.12000 2119.668
43.29000 2461.873
43.46000 2910.531
43.63000 3420.962
43.80000 4251.722
43.97000 5547.479
44.14000 9169.242
44.31000 32811.746
44.48000 92548.289
44.65000 55106.910
44.82000 11539.717
44.99000 4060.128
45.16000 2861.430
45.33000 2504.069
45.50000 2397.413
45.67000 2458.781
45.84000 2598.102
46.01000 3181.808
46.18000 6817.562
46.35000 126071.328
46.52000 323111.125
46.69000 85081.156
46.86000 5066.677
47.03000 2897.441
47.20000 2121.998
47.37000 1655.930
47.54000 1345.204
47.71000 1073.937
47.88000 956.466
48.05000 772.253
48.22000 682.648
48.39000 586.112
48.56000 554.570
48.73000 477.605
48.90000 452.070
49.07000 420.469
49.24000 389.526
49.41000 365.508
49.58000 348.849
49.75000 336.256
49.92000 330.465
50.09000 320.691
50.26000 296.422
50.43000 307.874
50.60000 281.782
50.77000 290.794
50.94000 282.435
51.11000 262.723
51.28000 253.126
51.45000 254.062
51.62000 252.660
51.79000 234.565
51.96000 237.163
52.13000 233.208
52.30000 229.523
52.47000 212.266
52.64000 221.573
52.81000 210.220
52.98000 206.721
53.15000 204.576
53.32000 214.102
53.49000 207.274
53.66000 200.138
53.83000 193.788
54.00000 200.397
54.17000 197.210
54.34000 192.490
54.51000 196.656
54.68000 182.273
54.85000 181.213
55.02000 190.079
55.19000 189.667
55.36000 177.132
55.53000 184.096
55.70000 177.032
55.87000 173.675
56.04000 182.073
56.21000 182.713
56.38000 175.694
56.55000 172.620
56.72000 172.560
56.89000 176.135
57.06000 171.545
57.23000 172.899
57.40000 168.317
57.57000 171.940
57.74000 170.099
57.91000 163.024
58.08000 175.329
58.25000 166.447
58.42000 162.390
58.59000 156.018
58.76000 170.560
58.93000 165.437
59.10000 146.443
59.27000 166.767
59.44000 153.617
59.61000 154.607
59.78000 147.768
59.95000 147.221
60.12000 154.508
60.29000 142.325
60.46000 151.630
60.63000 141.356
60.80000 155.852
60.97000 143.682
61.14000 153.060
61.31000 153.756
61.48000 145.227
61.65000 148.862
61.82000 149.310
61.99000 142.706
62.16000 148.494
62.33000 140.785
62.50000 138.227
62.67000 153.758
62.84000 137.674
63.01000 135.737
63.18000 142.458
63.35000 144.890
63.52000 135.504
63.69000 136.766
63.86000 135.103
64.03000 138.059
64.20000 140.951
64.37000 137.009
64.54000 145.528
64.71000 161.367
64.88000 135.952
65.05000 150.811
65.22000 144.801
65.39000 147.467
65.56000 143.788
65.73000 156.885
65.90000 160.802
66.07000 146.204
66.24000 154.228
66.41000 154.537
66.58000 156.166
66.75000 154.657
66.92000 166.180
67.09000 155.345
67.26000 161.911
67.43000 176.076
67.60000 178.190
67.77000 189.468
67.94000 183.235
68.11000 201.995
68.28000 197.848
68.45000 226.369
68.62000 267.843
68.79000 352.096
68.96000 697.294
69.13000 1522.039
69.30000 1487.821
69.47000 840.429
69.64000 408.026
69.81000 257.999
69.98000 218.055
70.00000 218.015