Folder: Master-Thesis/XRD/XRD/07-10-2025 Dep 6/XY Data

File: BTO_Mapping_Theta2Theta_07-10-2025_001_01_0-000_0-000.xy
20.00000 473.711
20.17000 465.723
20.34000 448.509
20.51000 463.491
20.68000 465.184
20.85000 465.350
21.02000 473.289
21.19000 456.165
21.36000 447.942
21.53000 472.531
21.70000 455.874
21.87000 490.396
22.04000 513.259
22.21000 511.650
22.38000 475.405
22.55000 447.731
22.72000 441.271
22.89000 421.040
23.06000 428.131
23.23000 434.719
23.40000 427.575
23.57000 420.501
23.74000 451.456
23.91000 497.062
24.08000 490.305
24.25000 441.705
24.42000 418.320
24.59000 425.874
24.76000 401.233
24.93000 397.304
25.10000 397.606
25.27000 400.593
25.44000 396.217
25.61000 381.813
25.78000 385.041
25.95000 379.543
26.12000 390.458
26.29000 374.883
26.46000 375.406
26.63000 368.170
26.80000 391.236
26.97000 382.910
27.14000 379.294
27.31000 351.941
27.48000 385.620
27.65000 380.290
27.82000 391.217
27.99000 365.719
28.16000 364.438
28.33000 348.974
28.50000 350.344
28.67000 360.457
28.84000 344.063
29.01000 366.479
29.18000 339.851
29.35000 355.998
29.52000 343.562
29.69000 354.521
29.86000 390.560
30.03000 371.861
30.20000 364.341
30.37000 349.823
30.54000 360.768
30.71000 374.063
30.88000 373.667
31.05000 480.143
31.22000 808.837
31.39000 1135.782
31.56000 791.628
31.73000 447.809
31.90000 367.307
32.07000 341.539
32.24000 329.703
32.41000 319.649
32.58000 305.744
32.75000 320.717
32.92000 511.248
33.09000 389.839
33.26000 307.000
33.43000 302.602
33.60000 298.152
33.77000 299.700
33.94000 301.290
34.11000 306.241
34.28000 327.822
34.45000 335.728
34.62000 317.950
34.79000 283.756
34.96000 274.488
35.13000 278.037
35.30000 258.268
35.47000 255.900
35.64000 254.479
35.81000 259.410
35.98000 259.979
36.15000 264.100
36.32000 243.937
36.49000 256.757
36.66000 256.778
36.83000 259.776
37.00000 281.294
37.17000 262.378
37.34000 252.128
37.51000 255.510
37.68000 242.793
37.85000 250.202
38.02000 239.303
38.19000 256.989
38.36000 301.499
38.53000 529.665
38.70000 958.236
38.87000 701.286
39.04000 310.325
39.21000 244.893
39.38000 226.073
39.55000 246.521
39.72000 229.676
39.89000 227.858
40.06000 219.647
40.23000 227.091
40.40000 232.553
40.57000 208.270
40.74000 214.546
40.91000 212.936
41.08000 204.428
41.25000 197.115
41.42000 196.288
41.59000 202.167
41.76000 209.997
41.93000 213.599
42.10000 220.124
42.27000 201.207
42.44000 193.156
42.61000 211.307
42.78000 190.233
42.95000 194.801
43.12000 191.397
43.29000 192.978
43.46000 195.614
43.63000 198.533
43.80000 195.047
43.97000 199.074
44.14000 180.734
44.31000 203.674
44.48000 216.179
44.65000 219.802
44.82000 238.903
44.99000 246.511
45.16000 251.053
45.33000 215.323
45.50000 204.941
45.67000 203.980
45.84000 192.506
46.01000 178.081
46.18000 177.127
46.35000 178.727
46.52000 176.094
46.69000 171.418
46.86000 167.879
47.03000 176.076
47.20000 171.373
47.37000 174.171
47.54000 165.336
47.71000 166.900
47.88000 148.497
48.05000 154.626
48.22000 155.747
48.39000 152.508
48.56000 160.221
48.73000 151.540
48.90000 158.006
49.07000 155.046
49.24000 151.567
49.41000 155.008
49.58000 145.188
49.75000 144.081
49.92000 151.350
50.09000 145.541
50.26000 152.255
50.43000 155.525
50.60000 163.242
50.77000 158.814
50.94000 158.546
51.11000 141.154
51.28000 153.628
51.45000 141.186
51.62000 138.792
51.79000 127.590
51.96000 132.082
52.13000 142.219
52.30000 142.040
52.47000 133.659
52.64000 144.730
52.81000 142.654
52.98000 144.824
53.15000 146.506
53.32000 152.097
53.49000 151.410
53.66000 145.699
53.83000 138.276
54.00000 135.667
54.17000 141.163
54.34000 144.628
54.51000 136.392
54.68000 143.564
54.85000 140.126
55.02000 145.561
55.19000 145.767
55.36000 163.029
55.53000 200.955
55.70000 332.413
55.87000 534.155
56.04000 535.178
56.21000 344.939
56.38000 203.696
56.55000 150.091
56.72000 136.521
56.89000 128.161
57.06000 131.931
57.23000 129.745
57.40000 121.427
57.57000 120.525
57.74000 122.925
57.91000 114.568
58.08000 126.355
58.25000 118.648
58.42000 116.793
58.59000 119.148
58.76000 119.466
58.93000 117.085
59.10000 112.508
59.27000 114.584
59.44000 110.539
59.61000 113.339
59.78000 113.020
59.95000 121.984
60.12000 114.266
60.29000 111.795
60.46000 112.775
60.63000 114.276
60.80000 117.663
60.97000 116.924
61.14000 124.412
61.31000 123.920
61.48000 135.095
61.65000 281.316
61.82000 183.844
61.99000 122.054
62.16000 130.461
62.33000 130.299
62.50000 130.284
62.67000 132.857
62.84000 130.720
63.01000 138.323
63.18000 128.179
63.35000 126.020
63.52000 132.451
63.69000 132.408
63.86000 154.825
64.03000 143.430
64.20000 153.065
64.37000 153.097
64.54000 160.848
64.71000 164.693
64.88000 183.166
65.05000 175.525
65.22000 213.404
65.39000 257.685
65.56000 320.567
65.73000 1029.605
65.90000 1913.309
66.07000 477.816
66.24000 399.072
66.41000 614.655
66.58000 397.074
66.75000 349.390
66.92000 356.384
67.09000 372.901
67.26000 401.481
67.43000 400.440
67.60000 427.427
67.77000 441.075
67.94000 470.529
68.11000 513.020
68.28000 573.257
68.45000 632.862
68.62000 889.827
68.79000 1572.956
68.96000 9651.257
69.13000 43609.363
69.30000 23499.367
69.47000 5548.665
69.64000 871.513
69.81000 626.119
69.98000 479.746
70.00000 482.716

File: BTO_Mapping_Theta2Theta_07-10-2025_001_02_10-000_0-000.xy
20.00000 492.407
20.17000 477.194
20.34000 450.869
20.51000 463.715
20.68000 473.937
20.85000 468.531
21.02000 465.856
21.19000 467.805
21.36000 455.001
21.53000 460.671
21.70000 452.680
21.87000 510.645
22.04000 514.107
22.21000 505.588
22.38000 470.908
22.55000 441.467
22.72000 448.663
22.89000 449.632
23.06000 443.896
23.23000 413.178
23.40000 434.583
23.57000 456.962
23.74000 464.800
23.91000 493.868
24.08000 489.525
24.25000 463.884
24.42000 417.590
24.59000 400.472
24.76000 408.260
24.93000 401.525
25.10000 399.610
25.27000 400.374
25.44000 392.530
25.61000 394.737
25.78000 407.282
25.95000 390.471
26.12000 387.042
26.29000 386.281
26.46000 386.636
26.63000 366.445
26.80000 370.504
26.97000 362.895
27.14000 357.242
27.31000 368.874
27.48000 347.835
27.65000 353.444
27.82000 361.698
27.99000 367.411
28.16000 354.257
28.33000 370.164
28.50000 364.590
28.67000 352.057
28.84000 363.617
29.01000 339.000
29.18000 350.228
29.35000 345.407
29.52000 353.142
29.69000 358.434
29.86000 369.618
30.03000 383.498
30.20000 371.065
30.37000 359.806
30.54000 373.611
30.71000 387.619
30.88000 402.373
31.05000 529.413
31.22000 840.902
31.39000 1179.570
31.56000 831.009
31.73000 485.929
31.90000 389.518
32.07000 346.848
32.24000 340.220
32.41000 357.338
32.58000 329.270
32.75000 319.128
32.92000 525.407
33.09000 417.233
33.26000 284.827
33.43000 287.229
33.60000 294.522
33.77000 301.227
33.94000 306.496
34.11000 319.068
34.28000 325.470
34.45000 335.210
34.62000 308.992
34.79000 282.331
34.96000 265.618
35.13000 255.091
35.30000 263.507
35.47000 263.680
35.64000 277.992
35.81000 256.047
35.98000 250.569
36.15000 255.797
36.32000 261.304
36.49000 255.393
36.66000 247.095
36.83000 265.143
37.00000 273.481
37.17000 275.180
37.34000 237.304
37.51000 249.262
37.68000 252.589
37.85000 240.160
38.02000 252.569
38.19000 252.771
38.36000 291.227
38.53000 490.305
38.70000 801.245
38.87000 575.244
39.04000 303.080
39.21000 242.023
39.38000 227.937
39.55000 244.157
39.72000 242.157
39.89000 229.682
40.06000 224.559
40.23000 222.468
40.40000 223.441
40.57000 213.104
40.74000 209.346
40.91000 211.137
41.08000 206.604
41.25000 199.520
41.42000 215.260
41.59000 201.807
41.76000 216.664
41.93000 215.355
42.10000 210.027
42.27000 206.893
42.44000 212.619
42.61000 212.826
42.78000 189.155
42.95000 201.340
43.12000 206.435
43.29000 198.172
43.46000 186.363
43.63000 202.373
43.80000 205.739
43.97000 203.745
44.14000 204.190
44.31000 215.799
44.48000 212.108
44.65000 205.265
44.82000 223.478
44.99000 225.047
45.16000 238.428
45.33000 208.348
45.50000 211.702
45.67000 191.321
45.84000 180.910
46.01000 183.936
46.18000 177.776
46.35000 174.712
46.52000 177.510
46.69000 176.311
46.86000 175.893
47.03000 163.142
47.20000 168.659
47.37000 162.365
47.54000 171.326
47.71000 164.232
47.88000 154.200
48.05000 156.383
48.22000 161.782
48.39000 158.115
48.56000 166.718
48.73000 150.520
48.90000 158.031
49.07000 161.585
49.24000 155.408
49.41000 150.652
49.58000 155.850
49.75000 148.840
49.92000 144.068
50.09000 147.876
50.26000 144.714
50.43000 150.607
50.60000 160.528
50.77000 163.956
50.94000 162.366
51.11000 151.869
51.28000 146.984
51.45000 150.707
51.62000 139.294
51.79000 137.331
51.96000 142.905
52.13000 136.286
52.30000 144.573
52.47000 132.332
52.64000 136.714
52.81000 133.239
52.98000 140.063
53.15000 128.643
53.32000 142.451
53.49000 146.345
53.66000 147.738
53.83000 145.907
54.00000 129.209
54.17000 133.854
54.34000 149.034
54.51000 142.470
54.68000 137.488
54.85000 143.247
55.02000 148.365
55.19000 149.675
55.36000 157.969
55.53000 201.040
55.70000 277.136
55.87000 429.327
56.04000 417.880
56.21000 288.539
56.38000 182.018
56.55000 159.144
56.72000 135.558
56.89000 135.074
57.06000 135.208
57.23000 123.974
57.40000 123.784
57.57000 126.693
57.74000 131.518
57.91000 122.716
58.08000 126.431
58.25000 118.335
58.42000 117.990
58.59000 123.247
58.76000 118.504
58.93000 112.332
59.10000 129.227
59.27000 117.489
59.44000 118.197
59.61000 116.484
59.78000 110.109
59.95000 128.155
60.12000 120.329
60.29000 120.672
60.46000 115.401
60.63000 120.243
60.80000 121.643
60.97000 112.982
61.14000 139.741
61.31000 122.161
61.48000 133.959
61.65000 283.219
61.82000 197.648
61.99000 131.133
62.16000 123.060
62.33000 124.121
62.50000 125.167
62.67000 133.665
62.84000 128.286
63.01000 139.801
63.18000 125.528
63.35000 139.733
63.52000 133.933
63.69000 132.665
63.86000 139.557
64.03000 149.832
64.20000 154.251
64.37000 149.570
64.54000 164.304
64.71000 178.753
64.88000 187.733
65.05000 183.351
65.22000 212.610
65.39000 271.536
65.56000 321.644
65.73000 996.799
65.90000 1890.155
66.07000 512.451
66.24000 400.238
66.41000 624.679
66.58000 399.233
66.75000 345.504
66.92000 365.941
67.09000 375.706
67.26000 389.440
67.43000 408.791
67.60000 434.885
67.77000 469.189
67.94000 475.328
68.11000 536.245
68.28000 546.644
68.45000 642.974
68.62000 869.065
68.79000 1594.115
68.96000 8965.217
69.13000 43670.402
69.30000 23819.576
69.47000 5775.259
69.64000 909.954
69.81000 613.161
69.98000 496.510
70.00000 491.198

File: BTO_Mapping_Theta2Theta_07-10-2025_001_03_20-000_0-000.xy
20.00000 482.616
20.17000 491.439
20.34000 468.676
20.51000 471.121
20.68000 462.246
20.85000 469.919
21.02000 460.494
21.19000 453.220
21.36000 426.644
21.53000 469.111
21.70000 479.356
21.87000 479.574
22.04000 498.225
22.21000 480.382
22.38000 458.508
22.55000 444.907
22.72000 447.669
22.89000 442.648
23.06000 444.988
23.23000 456.471
23.40000 450.498
23.57000 454.004
23.74000 466.085
23.91000 524.152
24.08000 498.152
24.25000 460.686
24.42000 434.243
24.59000 406.177
24.76000 424.022
24.93000 393.456
25.10000 406.615
25.27000 407.591
25.44000 387.193
25.61000 382.711
25.78000 399.407
25.95000 386.330
26.12000 396.396
26.29000 383.179
26.46000 382.305
26.63000 377.257
26.80000 370.258
26.97000 381.036
27.14000 374.661
27.31000 363.500
27.48000 385.674
27.65000 362.621
27.82000 375.562
27.99000 354.467
28.16000 378.175
28.33000 361.546
28.50000 367.197
28.67000 357.703
28.84000 373.483
29.01000 361.492
29.18000 338.249
29.35000 348.428
29.52000 350.143
29.69000 365.563
29.86000 379.387
30.03000 375.716
30.20000 375.923
30.37000 381.292
30.54000 366.579
30.71000 383.382
30.88000 407.892
31.05000 505.595
31.22000 815.046
31.39000 1018.259
31.56000 710.115
31.73000 486.650
31.90000 394.096
32.07000 358.039
32.24000 361.488
32.41000 354.592
32.58000 308.594
32.75000 330.348
32.92000 489.612
33.09000 437.591
33.26000 295.131
33.43000 283.317
33.60000 289.035
33.77000 280.379
33.94000 303.805
34.11000 310.634
34.28000 321.535
34.45000 309.768
34.62000 312.536
34.79000 263.744
34.96000 267.590
35.13000 276.298
35.30000 281.265
35.47000 265.439
35.64000 268.869
35.81000 259.044
35.98000 261.981
36.15000 269.454
36.32000 270.850
36.49000 251.803
36.66000 256.397
36.83000 255.959
37.00000 265.633
37.17000 262.990
37.34000 255.237
37.51000 249.958
37.68000 227.915
37.85000 264.282
38.02000 240.946
38.19000 260.791
38.36000 290.647
38.53000 453.213
38.70000 687.169
38.87000 486.586
39.04000 284.756
39.21000 232.049
39.38000 232.717
39.55000 248.101
39.72000 237.002
39.89000 231.721
40.06000 228.856
40.23000 224.029
40.40000 214.376
40.57000 223.122
40.74000 204.851
40.91000 223.720
41.08000 218.737
41.25000 205.519
41.42000 211.533
41.59000 213.486
41.76000 199.707
41.93000 214.106
42.10000 222.528
42.27000 208.139
42.44000 205.854
42.61000 199.014
42.78000 196.753
42.95000 198.707
43.12000 205.676
43.29000 194.902
43.46000 198.296
43.63000 201.539
43.80000 188.673
43.97000 190.982
44.14000 199.349
44.31000 198.000
44.48000 211.500
44.65000 207.563
44.82000 220.314
44.99000 223.320
45.16000 220.257
45.33000 208.107
45.50000 190.199
45.67000 190.969
45.84000 176.047
46.01000 178.016
46.18000 183.073
46.35000 183.251
46.52000 170.875
46.69000 181.035
46.86000 174.026
47.03000 180.631
47.20000 169.493
47.37000 165.598
47.54000 167.395
47.71000 167.844
47.88000 168.120
48.05000 159.038
48.22000 152.724
48.39000 144.847
48.56000 161.925
48.73000 156.832
48.90000 153.671
49.07000 154.750
49.24000 158.723
49.41000 154.475
49.58000 154.339
49.75000 154.936
49.92000 151.241
50.09000 149.952
50.26000 148.657
50.43000 155.067
50.60000 164.636
50.77000 156.744
50.94000 154.677
51.11000 145.139
51.28000 149.425
51.45000 134.676
51.62000 133.710
51.79000 144.363
51.96000 142.694
52.13000 147.653
52.30000 144.904
52.47000 136.765
52.64000 148.772
52.81000 134.644
52.98000 142.552
53.15000 148.524
53.32000 138.100
53.49000 136.251
53.66000 141.930
53.83000 137.376
54.00000 144.634
54.17000 150.729
54.34000 136.993
54.51000 133.746
54.68000 141.991
54.85000 147.886
55.02000 148.264
55.19000 145.530
55.36000 157.041
55.53000 180.112
55.70000 250.514
55.87000 319.512
56.04000 314.707
56.21000 232.212
56.38000 179.105
56.55000 158.693
56.72000 140.362
56.89000 132.963
57.06000 129.962
57.23000 125.343
57.40000 123.474
57.57000 129.017
57.74000 137.417
57.91000 125.627
58.08000 125.032
58.25000 121.507
58.42000 119.114
58.59000 116.085
58.76000 119.744
58.93000 120.114
59.10000 122.337
59.27000 120.499
59.44000 123.030
59.61000 118.570
59.78000 119.213
59.95000 110.690
60.12000 121.730
60.29000 123.796
60.46000 119.119
60.63000 106.304
60.80000 128.386
60.97000 124.531
61.14000 130.988
61.31000 125.369
61.48000 136.440
61.65000 278.968
61.82000 197.636
61.99000 126.980
62.16000 124.275
62.33000 118.779
62.50000 121.034
62.67000 125.916
62.84000 129.486
63.01000 130.388
63.18000 137.765
63.35000 139.730
63.52000 145.028
63.69000 138.390
63.86000 135.038
64.03000 150.087
64.20000 147.951
64.37000 155.732
64.54000 161.117
64.71000 169.673
64.88000 185.133
65.05000 185.683
65.22000 219.701
65.39000 249.539
65.56000 310.657
65.73000 997.717
65.90000 1970.844
66.07000 502.749
66.24000 394.017
66.41000 633.594
66.58000 426.551
66.75000 348.098
66.92000 362.473
67.09000 393.032
67.26000 402.587
67.43000 413.527
67.60000 417.103
67.77000 470.389
67.94000 495.148
68.11000 539.951
68.28000 571.080
68.45000 646.607
68.62000 879.347
68.79000 1576.770
68.96000 8693.085
69.13000 44478.676
69.30000 24543.416
69.47000 6116.302
69.64000 906.919
69.81000 625.631
69.98000 514.182
70.00000 510.687

File: BTO_Mapping_Theta2Theta_07-10-2025_001_05_40-000_0-000.xy
20.00000 480.587
20.17000 491.628
20.34000 469.094
20.51000 450.156
20.68000 468.879
20.85000 467.684
21.02000 459.768
21.19000 458.078
21.36000 420.141
21.53000 486.183
21.70000 460.131
21.87000 473.729
22.04000 474.146
22.21000 469.750
22.38000 483.053
22.55000 439.488
22.72000 437.412
22.89000 445.122
23.06000 431.938
23.23000 417.457
23.40000 442.375
23.57000 446.467
23.74000 460.731
23.91000 483.946
24.08000 491.588
24.25000 433.224
24.42000 422.862
24.59000 423.543
24.76000 400.247
24.93000 417.892
25.10000 399.038
25.27000 392.895
25.44000 408.807
25.61000 387.332
25.78000 405.388
25.95000 398.335
26.12000 384.208
26.29000 395.617
26.46000 389.111
26.63000 372.975
26.80000 382.537
26.97000 376.112
27.14000 369.623
27.31000 361.363
27.48000 372.489
27.65000 377.766
27.82000 387.546
27.99000 361.626
28.16000 372.181
28.33000 379.483
28.50000 362.286
28.67000 364.499
28.84000 355.012
29.01000 367.109
29.18000 379.578
29.35000 361.289
29.52000 366.011
29.69000 359.388
29.86000 368.520
30.03000 377.732
30.20000 374.964
30.37000 362.961
30.54000 356.621
30.71000 382.813
30.88000 395.107
31.05000 477.602
31.22000 696.614
31.39000 854.533
31.56000 655.825
31.73000 457.552
31.90000 407.002
32.07000 374.267
32.24000 340.219
32.41000 331.394
32.58000 325.529
32.75000 312.523
32.92000 520.019
33.09000 445.523
33.26000 311.176
33.43000 300.290
33.60000 278.151
33.77000 321.235
33.94000 303.607
34.11000 297.240
34.28000 308.920
34.45000 318.254
34.62000 289.111
34.79000 277.340
34.96000 285.378
35.13000 257.111
35.30000 261.023
35.47000 255.542
35.64000 264.917
35.81000 259.732
35.98000 251.250
36.15000 244.967
36.32000 256.767
36.49000 268.116
36.66000 244.340
36.83000 257.607
37.00000 270.342
37.17000 244.082
37.34000 251.777
37.51000 256.318
37.68000 248.199
37.85000 260.351
38.02000 255.519
38.19000 254.355
38.36000 274.645
38.53000 394.355
38.70000 485.336
38.87000 361.125
39.04000 263.897
39.21000 243.013
39.38000 237.063
39.55000 242.903
39.72000 226.283
39.89000 229.643
40.06000 219.362
40.23000 226.511
40.40000 223.729
40.57000 217.452
40.74000 221.310
40.91000 194.324
41.08000 216.557
41.25000 217.157
41.42000 214.634
41.59000 208.535
41.76000 205.606
41.93000 204.362
42.10000 199.054
42.27000 216.473
42.44000 204.873
42.61000 200.952
42.78000 193.102
42.95000 204.369
43.12000 195.632
43.29000 202.155
43.46000 198.632
43.63000 184.992
43.80000 198.762
43.97000 191.688
44.14000 199.616
44.31000 199.066
44.48000 200.301
44.65000 205.008
44.82000 200.091
44.99000 201.976
45.16000 206.778
45.33000 206.990
45.50000 198.213
45.67000 180.713
45.84000 178.967
46.01000 179.363
46.18000 173.499
46.35000 176.411
46.52000 182.283
46.69000 180.145
46.86000 173.384
47.03000 164.710
47.20000 163.401
47.37000 165.145
47.54000 159.531
47.71000 166.854
47.88000 165.973
48.05000 158.175
48.22000 153.794
48.39000 163.650
48.56000 149.838
48.73000 150.948
48.90000 155.786
49.07000 160.326
49.24000 150.553
49.41000 164.044
49.58000 153.850
49.75000 148.825
49.92000 158.505
50.09000 151.887
50.26000 161.155
50.43000 171.160
50.60000 163.991
50.77000 168.628
50.94000 159.935
51.11000 154.274
51.28000 144.913
51.45000 138.658
51.62000 137.835
51.79000 131.803
51.96000 143.388
52.13000 148.622
52.30000 148.747
52.47000 144.858
52.64000 133.329
52.81000 150.771
52.98000 139.926
53.15000 140.105
53.32000 134.712
53.49000 145.743
53.66000 140.526
53.83000 129.466
54.00000 139.543
54.17000 137.706
54.34000 129.892
54.51000 130.924
54.68000 133.936
54.85000 131.414
55.02000 139.812
55.19000 147.846
55.36000 159.891
55.53000 167.540
55.70000 187.810
55.87000 212.204
56.04000 223.446
56.21000 173.272
56.38000 166.010
56.55000 137.585
56.72000 139.791
56.89000 131.418
57.06000 133.335
57.23000 131.223
57.40000 109.363
57.57000 128.830
57.74000 127.985
57.91000 127.581
58.08000 125.413
58.25000 117.246
58.42000 132.423
58.59000 123.347
58.76000 117.462
58.93000 112.342
59.10000 115.601
59.27000 121.810
59.44000 105.098
59.61000 119.177
59.78000 113.691
59.95000 119.401
60.12000 116.634
60.29000 112.685
60.46000 119.916
60.63000 121.568
60.80000 106.429
60.97000 114.490
61.14000 131.610
61.31000 126.789
61.48000 131.857
61.65000 296.562
61.82000 199.003
61.99000 142.757
62.16000 124.242
62.33000 135.010
62.50000 131.598
62.67000 137.417
62.84000 131.781
63.01000 134.424
63.18000 135.452
63.35000 138.201
63.52000 140.550
63.69000 139.914
63.86000 144.691
64.03000 146.085
64.20000 156.923
64.37000 147.804
64.54000 165.793
64.71000 183.647
64.88000 193.940
65.05000 199.942
65.22000 201.633
65.39000 245.757
65.56000 290.220
65.73000 957.433
65.90000 2012.898
66.07000 553.345
66.24000 388.582
66.41000 634.807
66.58000 468.152
66.75000 354.606
66.92000 369.341
67.09000 393.499
67.26000 410.262
67.43000 431.141
67.60000 443.189
67.77000 475.504
67.94000 511.339
68.11000 524.678
68.28000 574.911
68.45000 701.705
68.62000 905.383
68.79000 1620.417
68.96000 8051.635
69.13000 45587.008
69.30000 26010.623
69.47000 7025.366
69.64000 987.759
69.81000 639.121
69.98000 500.206
70.00000 498.737

File: BTO_Mapping_Theta2Theta_07-10-2025_001_06_9-135_4-067.xy
20.00000 477.766
20.17000 484.861
20.34000 466.970
20.51000 453.626
20.68000 459.111
20.85000 459.048
21.02000 474.114
21.19000 455.932
21.36000 469.066
21.53000 456.463
21.70000 455.947
21.87000 497.154
22.04000 502.251
22.21000 508.386
22.38000 482.923
22.55000 468.963
22.72000 435.888
22.89000 462.874
23.06000 428.389
23.23000 438.095
23.40000 443.170
23.57000 450.990
23.74000 459.922
23.91000 498.519
24.08000 499.640
24.25000 443.629
24.42000 404.975
24.59000 405.200
24.76000 402.715
24.93000 416.113
25.10000 401.133
25.27000 404.801
25.44000 386.230
25.61000 392.272
25.78000 397.133
25.95000 395.177
26.12000 395.350
26.29000 377.904
26.46000 379.650
26.63000 372.083
26.80000 373.109
26.97000 381.790
27.14000 358.043
27.31000 378.171
27.48000 379.924
27.65000 358.290
27.82000 361.127
27.99000 363.018
28.16000 356.418
28.33000 359.242
28.50000 351.280
28.67000 341.927
28.84000 361.674
29.01000 357.543
29.18000 340.361
29.35000 334.278
29.52000 342.696
29.69000 344.519
29.86000 373.511
30.03000 387.560
30.20000 380.108
30.37000 376.889
30.54000 395.808
30.71000 390.967
30.88000 406.066
31.05000 507.770
31.22000 821.228
31.39000 1189.119
31.56000 838.238
31.73000 494.171
31.90000 362.380
32.07000 355.114
32.24000 336.236
32.41000 332.047
32.58000 329.746
32.75000 331.683
32.92000 491.238
33.09000 419.714
33.26000 300.230
33.43000 298.445
33.60000 309.240
33.77000 293.644
33.94000 305.159
34.11000 316.406
34.28000 324.510
34.45000 326.046
34.62000 299.895
34.79000 308.957
34.96000 266.094
35.13000 289.909
35.30000 267.945
35.47000 267.492
35.64000 262.501
35.81000 275.309
35.98000 258.904
36.15000 261.695
36.32000 249.343
36.49000 238.733
36.66000 258.552
36.83000 269.987
37.00000 264.982
37.17000 263.825
37.34000 252.279
37.51000 249.707
37.68000 254.196
37.85000 248.738
38.02000 247.851
38.19000 228.392
38.36000 291.077
38.53000 480.987
38.70000 802.023
38.87000 603.514
39.04000 309.773
39.21000 237.777
39.38000 238.255
39.55000 245.667
39.72000 245.794
39.89000 239.005
40.06000 223.691
40.23000 216.014
40.40000 213.416
40.57000 215.616
40.74000 202.987
40.91000 214.603
41.08000 221.386
41.25000 235.908
41.42000 214.860
41.59000 206.281
41.76000 207.767
41.93000 220.639
42.10000 219.220
42.27000 205.921
42.44000 209.120
42.61000 198.976
42.78000 199.768
42.95000 195.102
43.12000 196.970
43.29000 191.423
43.46000 194.322
43.63000 191.481
43.80000 186.240
43.97000 175.336
44.14000 191.665
44.31000 202.009
44.48000 201.603
44.65000 200.857
44.82000 214.195
44.99000 229.239
45.16000 231.220
45.33000 210.753
45.50000 210.918
45.67000 197.626
45.84000 175.147
46.01000 177.447
46.18000 181.580
46.35000 175.057
46.52000 180.206
46.69000 166.849
46.86000 169.290
47.03000 150.270
47.20000 166.916
47.37000 163.530
47.54000 168.615
47.71000 158.698
47.88000 164.559
48.05000 156.151
48.22000 165.004
48.39000 147.069
48.56000 159.531
48.73000 149.249
48.90000 168.464
49.07000 155.004
49.24000 154.186
49.41000 152.431
49.58000 144.265
49.75000 155.597
49.92000 154.393
50.09000 155.069
50.26000 157.099
50.43000 160.115
50.60000 161.442
50.77000 155.097
50.94000 153.279
51.11000 138.282
51.28000 148.088
51.45000 141.049
51.62000 146.854
51.79000 135.201
51.96000 143.237
52.13000 138.575
52.30000 131.403
52.47000 143.531
52.64000 134.560
52.81000 144.052
52.98000 154.641
53.15000 137.739
53.32000 148.740
53.49000 146.769
53.66000 140.725
53.83000 142.063
54.00000 139.341
54.17000 136.885
54.34000 131.252
54.51000 140.522
54.68000 137.412
54.85000 146.172
55.02000 140.389
55.19000 147.258
55.36000 157.899
55.53000 206.832
55.70000 272.947
55.87000 391.326
56.04000 425.107
56.21000 296.027
56.38000 198.546
56.55000 149.421
56.72000 136.343
56.89000 134.483
57.06000 134.425
57.23000 126.739
57.40000 128.975
57.57000 135.864
57.74000 124.895
57.91000 121.846
58.08000 123.397
58.25000 130.543
58.42000 123.542
58.59000 117.142
58.76000 113.086
58.93000 114.420
59.10000 116.606
59.27000 120.986
59.44000 119.229
59.61000 113.920
59.78000 112.280
59.95000 121.265
60.12000 124.260
60.29000 112.444
60.46000 117.132
60.63000 119.639
60.80000 121.441
60.97000 118.601
61.14000 120.703
61.31000 128.636
61.48000 138.409
61.65000 276.941
61.82000 207.924
61.99000 126.400
62.16000 128.074
62.33000 122.929
62.50000 118.724
62.67000 136.184
62.84000 130.873
63.01000 127.774
63.18000 125.393
63.35000 122.194
63.52000 152.763
63.69000 140.264
63.86000 139.971
64.03000 145.696
64.20000 146.874
64.37000 155.558
64.54000 168.861
64.71000 166.520
64.88000 175.564
65.05000 204.547
65.22000 204.802
65.39000 267.833
65.56000 316.435
65.73000 997.351
65.90000 1921.994
66.07000 488.495
66.24000 385.586
66.41000 613.838
66.58000 404.558
66.75000 347.205
66.92000 354.795
67.09000 372.655
67.26000 381.026
67.43000 427.352
67.60000 444.502
67.77000 439.757
67.94000 485.449
68.11000 519.916
68.28000 580.913
68.45000 643.718
68.62000 870.360
68.79000 1573.158
68.96000 8768.833
69.13000 43453.609
69.30000 23969.121
69.47000 5988.918
69.64000 923.848
69.81000 607.202
69.98000 509.894
70.00000 496.892