Folder: Master-Thesis/XRD/XRD/07-10-2025 Dep 6/XY Data (part 6)

File: BTO_Mapping_Theta2Theta_07-10-2025_001_37_-39-126_-8-316.xy
20.00000 474.118
20.17000 478.751
20.34000 464.971
20.51000 458.774
20.68000 448.611
20.85000 473.878
21.02000 476.796
21.19000 487.619
21.36000 481.916
21.53000 492.617
21.70000 544.673
21.87000 747.472
22.04000 760.940
22.21000 568.961
22.38000 493.914
22.55000 454.113
22.72000 447.665
22.89000 432.208
23.06000 426.872
23.23000 414.619
23.40000 418.063
23.57000 406.866
23.74000 422.651
23.91000 405.683
24.08000 413.353
24.25000 412.294
24.42000 406.523
24.59000 428.172
24.76000 413.282
24.93000 397.797
25.10000 417.395
25.27000 387.507
25.44000 390.745
25.61000 421.059
25.78000 378.298
25.95000 381.583
26.12000 382.837
26.29000 369.521
26.46000 377.244
26.63000 380.296
26.80000 365.515
26.97000 374.591
27.14000 380.709
27.31000 370.150
27.48000 403.337
27.65000 363.660
27.82000 362.433
27.99000 365.457
28.16000 368.938
28.33000 366.345
28.50000 362.597
28.67000 348.637
28.84000 339.666
29.01000 343.538
29.18000 346.641
29.35000 344.764
29.52000 368.275
29.69000 376.895
29.86000 456.414
30.03000 495.497
30.20000 432.361
30.37000 416.819
30.54000 376.138
30.71000 421.420
30.88000 510.676
31.05000 1167.461
31.22000 3120.376
31.39000 3303.601
31.56000 1371.929
31.73000 577.254
31.90000 383.096
32.07000 343.292
32.24000 340.287
32.41000 320.463
32.58000 325.521
32.75000 314.222
32.92000 630.054
33.09000 482.088
33.26000 318.910
33.43000 283.734
33.60000 288.096
33.77000 291.039
33.94000 281.585
34.11000 278.653
34.28000 280.028
34.45000 278.799
34.62000 275.913
34.79000 287.936
34.96000 273.141
35.13000 265.032
35.30000 278.571
35.47000 263.132
35.64000 275.789
35.81000 255.191
35.98000 253.802
36.15000 250.106
36.32000 249.320
36.49000 239.495
36.66000 246.662
36.83000 259.376
37.00000 259.074
37.17000 258.489
37.34000 256.740
37.51000 249.839
37.68000 231.715
37.85000 261.307
38.02000 244.485
38.19000 256.510
38.36000 315.809
38.53000 415.448
38.70000 423.724
38.87000 320.109
39.04000 254.533
39.21000 241.343
39.38000 227.911
39.55000 220.309
39.72000 238.364
39.89000 227.597
40.06000 239.083
40.23000 212.731
40.40000 209.754
40.57000 218.937
40.74000 212.755
40.91000 210.655
41.08000 224.904
41.25000 211.845
41.42000 206.253
41.59000 207.398
41.76000 202.404
41.93000 204.999
42.10000 211.744
42.27000 193.848
42.44000 190.843
42.61000 198.806
42.78000 213.397
42.95000 200.742
43.12000 206.466
43.29000 202.751
43.46000 197.522
43.63000 193.027
43.80000 189.968
43.97000 198.559
44.14000 197.200
44.31000 214.614
44.48000 256.190
44.65000 359.673
44.82000 454.511
44.99000 438.144
45.16000 342.483
45.33000 258.846
45.50000 236.349
45.67000 201.661
45.84000 199.211
46.01000 189.753
46.18000 175.949
46.35000 177.807
46.52000 165.437
46.69000 171.101
46.86000 173.835
47.03000 169.084
47.20000 162.985
47.37000 159.623
47.54000 164.019
47.71000 161.066
47.88000 166.450
48.05000 163.311
48.22000 173.138
48.39000 157.906
48.56000 164.195
48.73000 152.078
48.90000 154.213
49.07000 156.572
49.24000 162.542
49.41000 159.685
49.58000 146.233
49.75000 165.027
49.92000 166.199
50.09000 179.157
50.26000 187.421
50.43000 232.891
50.60000 259.672
50.77000 217.852
50.94000 184.818
51.11000 154.558
51.28000 160.497
51.45000 135.494
51.62000 148.994
51.79000 144.744
51.96000 143.331
52.13000 143.061
52.30000 144.602
52.47000 138.572
52.64000 143.573
52.81000 132.595
52.98000 150.908
53.15000 150.159
53.32000 156.416
53.49000 140.610
53.66000 146.067
53.83000 136.788
54.00000 127.353
54.17000 131.123
54.34000 131.594
54.51000 136.924
54.68000 144.953
54.85000 145.578
55.02000 138.442
55.19000 159.046
55.36000 219.333
55.53000 342.069
55.70000 445.666
55.87000 481.672
56.04000 364.197
56.21000 233.784
56.38000 177.275
56.55000 140.160
56.72000 138.991
56.89000 134.691
57.06000 122.224
57.23000 133.037
57.40000 114.638
57.57000 130.943
57.74000 112.612
57.91000 119.943
58.08000 114.219
58.25000 117.984
58.42000 113.882
58.59000 115.309
58.76000 115.765
58.93000 117.098
59.10000 113.214
59.27000 111.121
59.44000 115.112
59.61000 115.955
59.78000 110.179
59.95000 119.142
60.12000 119.747
60.29000 104.102
60.46000 110.490
60.63000 115.401
60.80000 124.367
60.97000 114.022
61.14000 118.946
61.31000 118.809
61.48000 154.187
61.65000 377.501
61.82000 216.410
61.99000 132.687
62.16000 144.747
62.33000 132.028
62.50000 128.791
62.67000 134.866
62.84000 130.990
63.01000 136.827
63.18000 131.989
63.35000 129.039
63.52000 141.127
63.69000 157.675
63.86000 140.915
64.03000 157.617
64.20000 160.630
64.37000 170.094
64.54000 167.516
64.71000 196.682
64.88000 204.377
65.05000 277.369
65.22000 366.537
65.39000 450.883
65.56000 510.420
65.73000 1724.570
65.90000 2868.442
66.07000 670.718
66.24000 522.779
66.41000 830.958
66.58000 503.193
66.75000 436.521
66.92000 451.798
67.09000 434.361
67.26000 473.388
67.43000 496.388
67.60000 509.382
67.77000 534.404
67.94000 548.648
68.11000 624.934
68.28000 687.422
68.45000 789.529
68.62000 1166.734
68.79000 2337.290
68.96000 17996.137
69.13000 67976.406
69.30000 36351.590
69.47000 8206.946
69.64000 1101.090
69.81000 694.583
69.98000 547.870
70.00000 530.177

File: BTO_Mapping_Theta2Theta_07-10-2025_001_44_-15-000_-25-981.xy
20.00000 477.172
20.17000 476.546
20.34000 457.146
20.51000 453.483
20.68000 457.432
20.85000 466.152
21.02000 476.567
21.19000 471.958
21.36000 461.586
21.53000 480.199
21.70000 473.686
21.87000 537.306
22.04000 588.523
22.21000 527.758
22.38000 461.705
22.55000 451.801
22.72000 438.626
22.89000 444.028
23.06000 435.504
23.23000 418.406
23.40000 429.046
23.57000 426.307
23.74000 445.120
23.91000 440.891
24.08000 430.948
24.25000 419.770
24.42000 417.128
24.59000 402.158
24.76000 413.607
24.93000 406.175
25.10000 382.774
25.27000 379.509
25.44000 405.305
25.61000 380.194
25.78000 386.589
25.95000 399.336
26.12000 386.772
26.29000 371.755
26.46000 376.641
26.63000 359.831
26.80000 374.307
26.97000 369.321
27.14000 371.587
27.31000 371.033
27.48000 378.994
27.65000 372.398
27.82000 350.145
27.99000 374.193
28.16000 355.249
28.33000 373.854
28.50000 351.931
28.67000 355.752
28.84000 351.842
29.01000 350.429
29.18000 347.094
29.35000 344.478
29.52000 348.881
29.69000 363.838
29.86000 394.947
30.03000 431.347
30.20000 400.917
30.37000 361.582
30.54000 368.417
30.71000 379.357
30.88000 427.937
31.05000 712.910
31.22000 1716.917
31.39000 2247.852
31.56000 1093.800
31.73000 468.821
31.90000 375.295
32.07000 344.671
32.24000 323.348
32.41000 320.922
32.58000 316.013
32.75000 312.032
32.92000 484.842
33.09000 419.137
33.26000 308.388
33.43000 276.212
33.60000 295.156
33.77000 284.745
33.94000 301.562
34.11000 307.634
34.28000 302.647
34.45000 313.681
34.62000 300.195
34.79000 297.218
34.96000 276.158
35.13000 265.324
35.30000 270.735
35.47000 261.981
35.64000 262.404
35.81000 257.759
35.98000 259.330
36.15000 267.201
36.32000 251.206
36.49000 265.319
36.66000 276.853
36.83000 266.882
37.00000 272.888
37.17000 269.560
37.34000 257.231
37.51000 248.660
37.68000 259.713
37.85000 245.704
38.02000 253.425
38.19000 269.060
38.36000 382.074
38.53000 678.483
38.70000 951.681
38.87000 657.670
39.04000 327.652
39.21000 251.671
39.38000 248.265
39.55000 219.318
39.72000 223.024
39.89000 222.842
40.06000 216.054
40.23000 218.235
40.40000 229.724
40.57000 221.950
40.74000 218.011
40.91000 218.136
41.08000 220.393
41.25000 201.844
41.42000 216.103
41.59000 206.966
41.76000 200.269
41.93000 208.259
42.10000 203.657
42.27000 198.730
42.44000 201.762
42.61000 197.543
42.78000 200.814
42.95000 198.045
43.12000 194.429
43.29000 191.580
43.46000 200.852
43.63000 188.176
43.80000 187.737
43.97000 191.439
44.14000 198.240
44.31000 202.725
44.48000 202.330
44.65000 218.363
44.82000 259.286
44.99000 286.331
45.16000 269.132
45.33000 234.807
45.50000 214.619
45.67000 216.327
45.84000 183.825
46.01000 174.821
46.18000 184.184
46.35000 178.138
46.52000 167.173
46.69000 170.233
46.86000 180.195
47.03000 188.439
47.20000 148.769
47.37000 160.884
47.54000 170.103
47.71000 151.807
47.88000 148.915
48.05000 156.979
48.22000 159.958
48.39000 156.001
48.56000 152.401
48.73000 158.162
48.90000 152.665
49.07000 155.169
49.24000 155.972
49.41000 153.266
49.58000 149.734
49.75000 165.136
49.92000 160.144
50.09000 156.092
50.26000 175.729
50.43000 188.746
50.60000 209.638
50.77000 189.380
50.94000 176.021
51.11000 158.061
51.28000 141.881
51.45000 136.985
51.62000 136.706
51.79000 142.241
51.96000 136.733
52.13000 150.378
52.30000 142.230
52.47000 130.876
52.64000 139.191
52.81000 135.062
52.98000 150.161
53.15000 146.636
53.32000 163.609
53.49000 157.878
53.66000 134.023
53.83000 142.501
54.00000 132.493
54.17000 130.866
54.34000 130.396
54.51000 131.083
54.68000 134.604
54.85000 137.811
55.02000 139.566
55.19000 158.147
55.36000 188.022
55.53000 288.603
55.70000 501.317
55.87000 644.430
56.04000 486.317
56.21000 262.895
56.38000 171.751
56.55000 148.482
56.72000 121.226
56.89000 132.706
57.06000 129.365
57.23000 122.497
57.40000 128.322
57.57000 132.329
57.74000 127.279
57.91000 118.318
58.08000 120.785
58.25000 111.519
58.42000 113.449
58.59000 111.689
58.76000 109.301
58.93000 115.908
59.10000 121.621
59.27000 108.366
59.44000 117.552
59.61000 114.549
59.78000 121.936
59.95000 113.090
60.12000 115.966
60.29000 122.682
60.46000 115.781
60.63000 103.541
60.80000 108.897
60.97000 110.450
61.14000 125.260
61.31000 127.932
61.48000 139.081
61.65000 293.946
61.82000 194.752
61.99000 135.414
62.16000 130.049
62.33000 132.435
62.50000 126.839
62.67000 124.397
62.84000 120.552
63.01000 135.592
63.18000 130.680
63.35000 131.228
63.52000 120.251
63.69000 138.879
63.86000 136.594
64.03000 139.268
64.20000 148.969
64.37000 163.884
64.54000 161.217
64.71000 173.477
64.88000 191.855
65.05000 221.532
65.22000 250.530
65.39000 323.911
65.56000 391.267
65.73000 1166.828
65.90000 2133.609
66.07000 542.006
66.24000 416.787
66.41000 673.389
66.58000 433.138
66.75000 360.138
66.92000 372.420
67.09000 392.988
67.26000 393.168
67.43000 424.326
67.60000 452.158
67.77000 459.665
67.94000 504.684
68.11000 532.185
68.28000 588.504
68.45000 655.737
68.62000 913.721
68.79000 1691.563
68.96000 11107.204
69.13000 49344.707
69.30000 26527.084
69.47000 6249.770
69.64000 898.732
69.81000 607.492
69.98000 513.681
70.00000 500.969

File: BTO_Mapping_Theta2Theta_07-10-2025_001_45_-20-000_-34-641.xy
20.00000 459.139
20.17000 458.127
20.34000 449.146
20.51000 472.464
20.68000 448.139
20.85000 467.533
21.02000 470.278
21.19000 464.672
21.36000 435.561
21.53000 457.876
21.70000 476.169
21.87000 558.023
22.04000 608.272
22.21000 528.437
22.38000 480.961
22.55000 470.727
22.72000 435.946
22.89000 438.598
23.06000 423.129
23.23000 420.410
23.40000 421.527
23.57000 427.095
23.74000 418.866
23.91000 425.198
24.08000 426.874
24.25000 418.355
24.42000 408.024
24.59000 392.477
24.76000 407.991
24.93000 382.420
25.10000 400.725
25.27000 391.734
25.44000 381.957
25.61000 395.216
25.78000 401.822
25.95000 397.734
26.12000 398.505
26.29000 390.396
26.46000 376.250
26.63000 383.448
26.80000 373.910
26.97000 375.759
27.14000 371.788
27.31000 359.846
27.48000 372.469
27.65000 369.129
27.82000 351.641
27.99000 356.916
28.16000 364.233
28.33000 379.062
28.50000 382.595
28.67000 346.962
28.84000 357.969
29.01000 365.182
29.18000 347.521
29.35000 347.466
29.52000 357.068
29.69000 367.843
29.86000 415.708
30.03000 456.339
30.20000 398.793
30.37000 409.213
30.54000 382.482
30.71000 410.161
30.88000 448.824
31.05000 843.922
31.22000 2157.337
31.39000 2873.708
31.56000 1361.739
31.73000 505.461
31.90000 371.397
32.07000 340.546
32.24000 326.889
32.41000 325.228
32.58000 324.673
32.75000 321.388
32.92000 530.923
33.09000 434.006
33.26000 291.796
33.43000 282.307
33.60000 284.525
33.77000 288.868
33.94000 283.313
34.11000 276.007
34.28000 280.643
34.45000 275.883
34.62000 270.875
34.79000 274.951
34.96000 264.166
35.13000 277.958
35.30000 271.066
35.47000 253.018
35.64000 253.426
35.81000 247.642
35.98000 249.573
36.15000 245.622
36.32000 250.314
36.49000 249.614
36.66000 257.622
36.83000 262.118
37.00000 274.372
37.17000 265.958
37.34000 256.282
37.51000 250.762
37.68000 244.295
37.85000 240.428
38.02000 265.581
38.19000 259.019
38.36000 330.357
38.53000 576.259
38.70000 727.342
38.87000 514.014
39.04000 301.284
39.21000 230.919
39.38000 231.799
39.55000 226.857
39.72000 219.573
39.89000 228.615
40.06000 221.154
40.23000 217.425
40.40000 220.578
40.57000 209.994
40.74000 203.401
40.91000 212.546
41.08000 215.023
41.25000 207.141
41.42000 212.026
41.59000 212.875
41.76000 208.467
41.93000 213.203
42.10000 207.014
42.27000 184.038
42.44000 198.210
42.61000 194.323
42.78000 183.615
42.95000 205.356
43.12000 196.767
43.29000 192.685
43.46000 194.975
43.63000 199.178
43.80000 191.473
43.97000 188.224
44.14000 188.479
44.31000 193.972
44.48000 197.919
44.65000 236.818
44.82000 285.178
44.99000 341.225
45.16000 270.727
45.33000 242.355
45.50000 224.123
45.67000 192.285
45.84000 187.518
46.01000 169.091
46.18000 189.477
46.35000 170.989
46.52000 179.265
46.69000 177.715
46.86000 158.064
47.03000 171.187
47.20000 153.603
47.37000 162.239
47.54000 160.381
47.71000 162.447
47.88000 168.341
48.05000 163.390
48.22000 157.361
48.39000 150.422
48.56000 159.609
48.73000 173.680
48.90000 156.542
49.07000 151.694
49.24000 153.091
49.41000 146.647
49.58000 159.162
49.75000 159.651
49.92000 159.313
50.09000 168.328
50.26000 173.662
50.43000 213.399
50.60000 245.810
50.77000 218.648
50.94000 178.041
51.11000 158.768
51.28000 150.971
51.45000 144.906
51.62000 143.044
51.79000 139.097
51.96000 136.853
52.13000 143.478
52.30000 138.146
52.47000 140.722
52.64000 136.286
52.81000 134.482
52.98000 150.476
53.15000 148.212
53.32000 157.561
53.49000 153.963
53.66000 149.173
53.83000 130.611
54.00000 143.908
54.17000 137.282
54.34000 122.126
54.51000 139.604
54.68000 146.058
54.85000 142.482
55.02000 150.136
55.19000 165.152
55.36000 205.434
55.53000 327.800
55.70000 514.970
55.87000 607.470
56.04000 473.850
56.21000 277.394
56.38000 174.950
56.55000 141.153
56.72000 141.605
56.89000 135.965
57.06000 131.643
57.23000 120.359
57.40000 125.359
57.57000 118.460
57.74000 120.026
57.91000 112.814
58.08000 121.000
58.25000 124.634
58.42000 116.355
58.59000 120.839
58.76000 125.630
58.93000 113.850
59.10000 124.711
59.27000 122.147
59.44000 119.317
59.61000 123.020
59.78000 114.423
59.95000 119.000
60.12000 116.172
60.29000 128.248
60.46000 118.857
60.63000 113.758
60.80000 115.790
60.97000 122.709
61.14000 126.787
61.31000 134.000
61.48000 127.171
61.65000 313.774
61.82000 199.765
61.99000 136.455
62.16000 136.531
62.33000 123.609
62.50000 133.047
62.67000 128.007
62.84000 129.913
63.01000 127.435
63.18000 145.692
63.35000 135.949
63.52000 128.399
63.69000 140.331
63.86000 143.498
64.03000 147.769
64.20000 154.891
64.37000 156.329
64.54000 157.471
64.71000 180.202
64.88000 194.745
65.05000 222.781
65.22000 298.835
65.39000 349.768
65.56000 443.270
65.73000 1303.808
65.90000 2253.229
66.07000 560.239
66.24000 442.169
66.41000 726.591
66.58000 444.692
66.75000 371.144
66.92000 399.457
67.09000 401.586
67.26000 422.195
67.43000 437.737
67.60000 448.049
67.77000 488.300
67.94000 509.227
68.11000 540.849
68.28000 586.888
68.45000 661.144
68.62000 990.698
68.79000 1819.828
68.96000 11853.339
69.13000 52270.332
69.30000 28351.965
69.47000 6764.611
69.64000 958.347
69.81000 667.970
69.98000 504.733
70.00000 504.212

File: BTO_Mapping_Theta2Theta_07-10-2025_001_46_-1-045_-9-945.xy
20.00000 501.447
20.17000 472.418
20.34000 468.707
20.51000 477.579
20.68000 445.650
20.85000 467.347
21.02000 454.867
21.19000 454.652
21.36000 473.850
21.53000 446.653
21.70000 492.068
21.87000 498.328
22.04000 550.515
22.21000 510.974
22.38000 464.543
22.55000 446.220
22.72000 450.233
22.89000 435.635
23.06000 449.748
23.23000 437.488
23.40000 445.187
23.57000 425.947
23.74000 459.394
23.91000 471.366
24.08000 469.846
24.25000 426.514
24.42000 419.296
24.59000 415.012
24.76000 408.020
24.93000 404.009
25.10000 393.423
25.27000 390.227
25.44000 392.455
25.61000 400.279
25.78000 397.908
25.95000 407.629
26.12000 401.361
26.29000 380.759
26.46000 371.035
26.63000 370.204
26.80000 369.985
26.97000 367.187
27.14000 364.920
27.31000 384.473
27.48000 371.441
27.65000 367.671
27.82000 369.673
27.99000 353.075
28.16000 358.037
28.33000 357.077
28.50000 352.532
28.67000 342.798
28.84000 353.397
29.01000 346.188
29.18000 342.629
29.35000 349.617
29.52000 347.310
29.69000 349.932
29.86000 345.499
30.03000 366.904
30.20000 363.657
30.37000 344.472
30.54000 351.665
30.71000 354.818
30.88000 372.174
31.05000 473.172
31.22000 805.599
31.39000 1120.055
31.56000 758.948
31.73000 446.518
31.90000 374.061
32.07000 354.720
32.24000 330.986
32.41000 335.430
32.58000 302.542
32.75000 309.042
32.92000 478.463
33.09000 401.016
33.26000 286.777
33.43000 281.153
33.60000 298.371
33.77000 288.782
33.94000 298.623
34.11000 318.684
34.28000 326.176
34.45000 340.336
34.62000 304.547
34.79000 278.613
34.96000 285.392
35.13000 257.507
35.30000 255.560
35.47000 258.790
35.64000 269.618
35.81000 259.404
35.98000 255.073
36.15000 260.266
36.32000 251.045
36.49000 248.035
36.66000 247.322
36.83000 256.860
37.00000 285.004
37.17000 267.159
37.34000 254.487
37.51000 251.694
37.68000 257.771
37.85000 243.889
38.02000 257.678
38.19000 262.002
38.36000 312.117
38.53000 568.408
38.70000 1013.206
38.87000 746.376
39.04000 323.975
39.21000 251.265
39.38000 230.222
39.55000 237.904
39.72000 230.443
39.89000 230.934
40.06000 231.811
40.23000 223.895
40.40000 231.240
40.57000 215.669
40.74000 218.380
40.91000 210.090
41.08000 201.286
41.25000 207.314
41.42000 216.014
41.59000 201.478
41.76000 203.394
41.93000 205.255
42.10000 215.701
42.27000 211.924
42.44000 208.475
42.61000 205.257
42.78000 206.855
42.95000 210.699
43.12000 209.137
43.29000 194.999
43.46000 200.754
43.63000 187.427
43.80000 183.706
43.97000 193.798
44.14000 185.159
44.31000 189.876
44.48000 211.572
44.65000 210.222
44.82000 232.409
44.99000 256.416
45.16000 257.051
45.33000 228.855
45.50000 198.637
45.67000 198.787
45.84000 187.321
46.01000 172.866
46.18000 182.779
46.35000 176.575
46.52000 178.023
46.69000 167.027
46.86000 178.245
47.03000 155.784
47.20000 152.118
47.37000 152.893
47.54000 161.803
47.71000 163.075
47.88000 165.521
48.05000 150.729
48.22000 165.073
48.39000 138.395
48.56000 163.964
48.73000 161.807
48.90000 148.784
49.07000 158.928
49.24000 148.370
49.41000 152.517
49.58000 146.619
49.75000 149.217
49.92000 162.637
50.09000 145.085
50.26000 147.990
50.43000 156.528
50.60000 166.990
50.77000 167.648
50.94000 167.600
51.11000 144.819
51.28000 153.836
51.45000 141.821
51.62000 142.388
51.79000 136.713
51.96000 139.877
52.13000 144.778
52.30000 152.173
52.47000 135.732
52.64000 133.460
52.81000 130.813
52.98000 142.125
53.15000 154.518
53.32000 152.775
53.49000 156.931
53.66000 143.578
53.83000 135.091
54.00000 135.217
54.17000 126.687
54.34000 133.952
54.51000 132.992
54.68000 139.551
54.85000 133.863
55.02000 145.181
55.19000 150.272
55.36000 158.404
55.53000 212.719
55.70000 353.125
55.87000 554.943
56.04000 584.448
56.21000 342.586
56.38000 196.683
56.55000 153.435
56.72000 139.689
56.89000 135.857
57.06000 123.911
57.23000 122.484
57.40000 125.188
57.57000 128.519
57.74000 128.683
57.91000 131.481
58.08000 120.278
58.25000 114.940
58.42000 117.526
58.59000 122.062
58.76000 112.679
58.93000 110.705
59.10000 123.335
59.27000 123.984
59.44000 113.884
59.61000 118.949
59.78000 113.409
59.95000 122.239
60.12000 120.212
60.29000 123.570
60.46000 106.045
60.63000 116.626
60.80000 114.605
60.97000 111.555
61.14000 122.033
61.31000 115.243
61.48000 124.611
61.65000 271.142
61.82000 192.283
61.99000 125.464
62.16000 132.919
62.33000 128.129
62.50000 121.076
62.67000 131.390
62.84000 116.118
63.01000 126.931
63.18000 132.322
63.35000 123.611
63.52000 139.121
63.69000 133.622
63.86000 138.039
64.03000 139.202
64.20000 147.466
64.37000 153.188
64.54000 153.425
64.71000 162.576
64.88000 185.031
65.05000 194.119
65.22000 208.365
65.39000 244.928
65.56000 308.037
65.73000 1015.494
65.90000 1896.257
66.07000 479.810
66.24000 385.195
66.41000 611.670
66.58000 415.783
66.75000 351.093
66.92000 352.290
67.09000 376.075
67.26000 387.302
67.43000 397.540
67.60000 418.702
67.77000 438.360
67.94000 476.857
68.11000 522.682
68.28000 555.160
68.45000 642.970
68.62000 872.814
68.79000 1550.475
68.96000 9196.694
69.13000 43026.621
69.30000 23582.873
69.47000 5711.760
69.64000 890.923
69.81000 595.741
69.98000 503.924
70.00000 498.709

File: BTO_Mapping_Theta2Theta_07-10-2025_001_47_-2-091_-19-890.xy
20.00000 492.876
20.17000 478.101
20.34000 472.030
20.51000 471.441
20.68000 474.048
20.85000 459.462
21.02000 452.102
21.19000 465.756
21.36000 451.612
21.53000 452.007
21.70000 462.085
21.87000 496.238
22.04000 538.244
22.21000 512.139
22.38000 479.489
22.55000 437.253
22.72000 431.753
22.89000 421.781
23.06000 423.199
23.23000 412.994
23.40000 445.640
23.57000 430.423
23.74000 453.895
23.91000 479.576
24.08000 482.770
24.25000 431.957
24.42000 397.283
24.59000 419.560
24.76000 396.065
24.93000 419.951
25.10000 396.855
25.27000 407.852
25.44000 395.286
25.61000 390.785
25.78000 402.449
25.95000 380.827
26.12000 379.033
26.29000 388.613
26.46000 380.686
26.63000 365.829
26.80000 375.376
26.97000 360.591
27.14000 369.729
27.31000 368.731
27.48000 359.296
27.65000 375.648
27.82000 370.697
27.99000 366.192
28.16000 366.204
28.33000 347.905
28.50000 354.012
28.67000 357.191
28.84000 352.545
29.01000 335.576
29.18000 345.539
29.35000 354.220
29.52000 345.055
29.69000 338.433
29.86000 355.652
30.03000 388.040
30.20000 358.189
30.37000 336.599
30.54000 356.736
30.71000 338.877
30.88000 376.503
31.05000 486.359
31.22000 836.148
31.39000 1143.816
31.56000 743.250
31.73000 434.854
31.90000 366.934
32.07000 342.091
32.24000 324.249
32.41000 325.900
32.58000 322.540
32.75000 331.295
32.92000 474.023
33.09000 409.921
33.26000 302.656
33.43000 286.735
33.60000 278.892
33.77000 297.846
33.94000 289.396
34.11000 310.873
34.28000 319.277
34.45000 325.543
34.62000 298.496
34.79000 273.415
34.96000 274.502
35.13000 265.395
35.30000 265.834
35.47000 257.764
35.64000 263.995
35.81000 259.454
35.98000 261.764
36.15000 262.758
36.32000 242.110
36.49000 255.248
36.66000 245.468
36.83000 246.848
37.00000 276.334
37.17000 274.722
37.34000 271.363
37.51000 241.543
37.68000 234.389
37.85000 244.986
38.02000 237.051
38.19000 266.245
38.36000 318.946
38.53000 635.177
38.70000 1057.574
38.87000 765.662
39.04000 344.183
39.21000 253.537
39.38000 237.491
39.55000 225.734
39.72000 232.069
39.89000 243.122
40.06000 230.011
40.23000 226.871
40.40000 218.834
40.57000 212.787
40.74000 215.993
40.91000 206.865
41.08000 202.714
41.25000 204.059
41.42000 211.729
41.59000 200.521
41.76000 203.638
41.93000 204.084
42.10000 224.312
42.27000 216.673
42.44000 211.542
42.61000 213.322
42.78000 194.466
42.95000 202.407
43.12000 187.820
43.29000 204.008
43.46000 191.106
43.63000 190.158
43.80000 175.403
43.97000 191.795
44.14000 189.299
44.31000 186.918
44.48000 206.419
44.65000 205.312
44.82000 230.738
44.99000 274.148
45.16000 254.483
45.33000 215.655
45.50000 215.484
45.67000 193.919
45.84000 201.892
46.01000 185.837
46.18000 181.574
46.35000 169.690
46.52000 175.431
46.69000 178.224
46.86000 175.301
47.03000 177.591
47.20000 154.936
47.37000 166.642
47.54000 160.607
47.71000 153.116
47.88000 168.171
48.05000 158.616
48.22000 163.120
48.39000 158.227
48.56000 154.671
48.73000 155.929
48.90000 149.040
49.07000 149.505
49.24000 156.844
49.41000 160.504
49.58000 154.230
49.75000 140.213
49.92000 157.634
50.09000 143.985
50.26000 154.284
50.43000 166.657
50.60000 178.824
50.77000 163.117
50.94000 152.309
51.11000 155.115
51.28000 144.741
51.45000 148.831
51.62000 151.484
51.79000 154.217
51.96000 135.653
52.13000 141.793
52.30000 134.644
52.47000 137.953
52.64000 132.623
52.81000 142.185
52.98000 156.717
53.15000 141.915
53.32000 143.500
53.49000 159.445
53.66000 143.970
53.83000 148.202
54.00000 144.648
54.17000 145.773
54.34000 126.283
54.51000 143.042
54.68000 137.174
54.85000 138.623
55.02000 135.322
55.19000 142.749
55.36000 160.503
55.53000 217.089
55.70000 373.396
55.87000 612.735
56.04000 584.315
56.21000 354.757
56.38000 209.586
56.55000 147.368
56.72000 136.559
56.89000 123.266
57.06000 126.047
57.23000 119.578
57.40000 126.709
57.57000 128.629
57.74000 123.950
57.91000 122.570
58.08000 115.041
58.25000 127.586
58.42000 114.240
58.59000 120.105
58.76000 120.336
58.93000 117.650
59.10000 122.080
59.27000 110.229
59.44000 122.244
59.61000 111.704
59.78000 121.896
59.95000 112.899
60.12000 124.759
60.29000 114.553
60.46000 120.879
60.63000 118.968
60.80000 115.970
60.97000 122.126
61.14000 124.289
61.31000 122.363
61.48000 137.796
61.65000 274.364
61.82000 191.871
61.99000 119.646
62.16000 125.591
62.33000 129.397
62.50000 122.553
62.67000 125.908
62.84000 129.650
63.01000 129.177
63.18000 130.897
63.35000 128.411
63.52000 140.771
63.69000 135.583
63.86000 142.858
64.03000 138.814
64.20000 146.728
64.37000 150.800
64.54000 159.332
64.71000 168.478
64.88000 159.922
65.05000 188.950
65.22000 204.535
65.39000 246.794
65.56000 318.573
65.73000 998.615
65.90000 1905.560
66.07000 498.614
66.24000 385.916
66.41000 629.581
66.58000 395.703
66.75000 356.314
66.92000 362.840
67.09000 390.786
67.26000 389.879
67.43000 404.814
67.60000 433.942
67.77000 432.405
67.94000 486.177
68.11000 507.902
68.28000 561.943
68.45000 641.035
68.62000 867.990
68.79000 1549.216
68.96000 9232.598
69.13000 43088.938
69.30000 23545.975
69.47000 5711.947
69.64000 898.061
69.81000 605.532
69.98000 499.464
70.00000 496.323