Folder: Master-Thesis/XRD/XRD/07-10-2025 Dep 6/XY Data (part 3)

File: BTO_Mapping_Theta2Theta_07-10-2025_001_14_3-090_9-511.xy
20.00000 471.529
20.17000 479.500
20.34000 478.624
20.51000 477.605
20.68000 449.022
20.85000 448.664
21.02000 457.743
21.19000 465.404
21.36000 458.884
21.53000 446.927
21.70000 472.636
21.87000 477.107
22.04000 504.292
22.21000 488.769
22.38000 475.025
22.55000 456.104
22.72000 429.811
22.89000 437.685
23.06000 417.669
23.23000 418.619
23.40000 416.430
23.57000 451.564
23.74000 455.895
23.91000 476.858
24.08000 480.214
24.25000 438.864
24.42000 416.013
24.59000 406.052
24.76000 425.018
24.93000 416.503
25.10000 396.146
25.27000 381.653
25.44000 395.888
25.61000 383.785
25.78000 390.940
25.95000 394.218
26.12000 413.733
26.29000 389.788
26.46000 406.050
26.63000 369.573
26.80000 370.725
26.97000 373.007
27.14000 382.731
27.31000 360.180
27.48000 400.754
27.65000 365.102
27.82000 365.072
27.99000 361.250
28.16000 360.163
28.33000 369.473
28.50000 352.115
28.67000 359.707
28.84000 339.382
29.01000 346.933
29.18000 336.170
29.35000 351.488
29.52000 350.648
29.69000 351.402
29.86000 390.070
30.03000 378.675
30.20000 381.500
30.37000 358.829
30.54000 355.902
30.71000 353.210
30.88000 379.781
31.05000 493.786
31.22000 837.486
31.39000 1189.103
31.56000 863.035
31.73000 451.263
31.90000 371.484
32.07000 353.944
32.24000 331.701
32.41000 325.885
32.58000 329.200
32.75000 321.720
32.92000 494.943
33.09000 426.740
33.26000 280.192
33.43000 287.588
33.60000 299.675
33.77000 291.901
33.94000 303.736
34.11000 315.148
34.28000 321.427
34.45000 321.728
34.62000 307.579
34.79000 296.272
34.96000 285.008
35.13000 279.324
35.30000 254.966
35.47000 250.236
35.64000 277.300
35.81000 263.608
35.98000 245.880
36.15000 251.324
36.32000 253.516
36.49000 255.178
36.66000 246.277
36.83000 267.966
37.00000 268.326
37.17000 262.953
37.34000 254.089
37.51000 252.885
37.68000 242.003
37.85000 248.298
38.02000 250.459
38.19000 237.073
38.36000 284.416
38.53000 492.021
38.70000 850.678
38.87000 650.863
39.04000 305.435
39.21000 243.614
39.38000 228.685
39.55000 234.749
39.72000 224.495
39.89000 228.799
40.06000 226.495
40.23000 218.176
40.40000 213.291
40.57000 210.851
40.74000 209.374
40.91000 214.355
41.08000 199.555
41.25000 206.385
41.42000 208.539
41.59000 205.194
41.76000 201.629
41.93000 213.717
42.10000 204.544
42.27000 211.487
42.44000 209.472
42.61000 212.586
42.78000 194.853
42.95000 197.623
43.12000 187.537
43.29000 197.844
43.46000 185.579
43.63000 197.523
43.80000 179.769
43.97000 188.922
44.14000 202.679
44.31000 201.727
44.48000 203.030
44.65000 209.677
44.82000 227.491
44.99000 230.853
45.16000 226.621
45.33000 205.142
45.50000 203.611
45.67000 197.049
45.84000 178.528
46.01000 177.065
46.18000 170.362
46.35000 174.825
46.52000 167.377
46.69000 166.511
46.86000 163.523
47.03000 166.063
47.20000 160.308
47.37000 156.543
47.54000 153.674
47.71000 153.530
47.88000 162.613
48.05000 165.893
48.22000 156.163
48.39000 158.547
48.56000 149.624
48.73000 151.972
48.90000 163.797
49.07000 160.189
49.24000 153.569
49.41000 160.574
49.58000 151.083
49.75000 150.676
49.92000 158.114
50.09000 147.892
50.26000 154.451
50.43000 153.679
50.60000 155.227
50.77000 162.094
50.94000 152.221
51.11000 155.023
51.28000 148.678
51.45000 151.471
51.62000 146.674
51.79000 135.169
51.96000 140.044
52.13000 140.517
52.30000 139.803
52.47000 135.335
52.64000 130.894
52.81000 144.865
52.98000 142.217
53.15000 143.260
53.32000 147.270
53.49000 142.070
53.66000 143.248
53.83000 136.355
54.00000 135.707
54.17000 130.708
54.34000 126.107
54.51000 131.027
54.68000 131.669
54.85000 144.693
55.02000 136.580
55.19000 150.822
55.36000 162.532
55.53000 191.072
55.70000 280.688
55.87000 451.807
56.04000 464.215
56.21000 304.715
56.38000 198.131
56.55000 146.316
56.72000 141.751
56.89000 138.556
57.06000 132.880
57.23000 133.429
57.40000 128.602
57.57000 124.407
57.74000 123.438
57.91000 124.706
58.08000 121.098
58.25000 122.587
58.42000 112.935
58.59000 124.209
58.76000 120.911
58.93000 125.247
59.10000 112.476
59.27000 125.415
59.44000 113.267
59.61000 117.676
59.78000 114.390
59.95000 114.025
60.12000 119.586
60.29000 122.531
60.46000 115.900
60.63000 118.300
60.80000 123.987
60.97000 115.550
61.14000 124.907
61.31000 126.661
61.48000 129.308
61.65000 273.224
61.82000 185.468
61.99000 124.407
62.16000 132.407
62.33000 121.963
62.50000 123.884
62.67000 126.006
62.84000 129.570
63.01000 132.837
63.18000 131.511
63.35000 129.946
63.52000 133.495
63.69000 143.030
63.86000 149.606
64.03000 149.003
64.20000 142.646
64.37000 154.373
64.54000 161.239
64.71000 182.772
64.88000 173.895
65.05000 201.147
65.22000 224.798
65.39000 272.311
65.56000 325.846
65.73000 1004.091
65.90000 1899.471
66.07000 493.443
66.24000 381.997
66.41000 627.960
66.58000 418.539
66.75000 346.156
66.92000 366.382
67.09000 376.538
67.26000 375.454
67.43000 426.867
67.60000 427.931
67.77000 447.916
67.94000 483.334
68.11000 526.138
68.28000 556.485
68.45000 653.988
68.62000 885.544
68.79000 1574.172
68.96000 9109.847
69.13000 43839.863
69.30000 23671.131
69.47000 5765.445
69.64000 908.802
69.81000 605.504
69.98000 483.993
70.00000 473.214

File: BTO_Mapping_Theta2Theta_07-10-2025_001_16_9-271_28-532.xy
20.00000 490.749
20.17000 463.330
20.34000 467.205
20.51000 447.047
20.68000 471.835
20.85000 447.694
21.02000 443.781
21.19000 456.426
21.36000 455.640
21.53000 453.281
21.70000 465.183
21.87000 468.943
22.04000 494.105
22.21000 484.619
22.38000 456.446
22.55000 447.893
22.72000 430.109
22.89000 425.139
23.06000 419.169
23.23000 420.597
23.40000 440.264
23.57000 449.761
23.74000 474.792
23.91000 486.293
24.08000 501.528
24.25000 444.564
24.42000 422.952
24.59000 395.863
24.76000 413.893
24.93000 424.431
25.10000 402.417
25.27000 384.154
25.44000 404.849
25.61000 394.116
25.78000 402.477
25.95000 366.716
26.12000 392.556
26.29000 366.049
26.46000 386.163
26.63000 375.248
26.80000 390.896
26.97000 367.535
27.14000 377.402
27.31000 357.663
27.48000 380.252
27.65000 388.591
27.82000 359.935
27.99000 372.531
28.16000 355.795
28.33000 363.856
28.50000 347.601
28.67000 363.026
28.84000 356.644
29.01000 351.656
29.18000 362.791
29.35000 354.915
29.52000 347.698
29.69000 347.528
29.86000 380.689
30.03000 361.034
30.20000 372.157
30.37000 387.541
30.54000 362.074
30.71000 384.043
30.88000 399.216
31.05000 484.568
31.22000 747.530
31.39000 1011.476
31.56000 742.007
31.73000 463.447
31.90000 382.859
32.07000 349.460
32.24000 347.935
32.41000 330.855
32.58000 316.684
32.75000 322.119
32.92000 505.465
33.09000 438.951
33.26000 285.329
33.43000 300.716
33.60000 287.417
33.77000 292.308
33.94000 294.189
34.11000 313.626
34.28000 314.985
34.45000 314.194
34.62000 305.196
34.79000 289.805
34.96000 264.124
35.13000 262.516
35.30000 276.218
35.47000 259.273
35.64000 256.058
35.81000 261.954
35.98000 250.230
36.15000 255.498
36.32000 248.907
36.49000 259.950
36.66000 241.328
36.83000 261.115
37.00000 254.553
37.17000 255.694
37.34000 257.473
37.51000 253.008
37.68000 251.034
37.85000 245.340
38.02000 257.890
38.19000 247.725
38.36000 295.340
38.53000 440.080
38.70000 688.803
38.87000 502.517
39.04000 293.937
39.21000 243.990
39.38000 229.793
39.55000 251.788
39.72000 234.114
39.89000 230.542
40.06000 220.982
40.23000 224.256
40.40000 211.378
40.57000 210.667
40.74000 221.829
40.91000 210.666
41.08000 215.108
41.25000 212.636
41.42000 203.508
41.59000 214.133
41.76000 205.344
41.93000 204.947
42.10000 222.247
42.27000 218.743
42.44000 216.706
42.61000 203.492
42.78000 200.297
42.95000 199.406
43.12000 192.969
43.29000 197.759
43.46000 180.088
43.63000 193.511
43.80000 177.847
43.97000 192.246
44.14000 175.198
44.31000 198.402
44.48000 201.164
44.65000 216.146
44.82000 221.635
44.99000 228.083
45.16000 212.920
45.33000 215.116
45.50000 204.555
45.67000 184.893
45.84000 182.771
46.01000 191.471
46.18000 176.737
46.35000 165.838
46.52000 181.134
46.69000 177.798
46.86000 165.274
47.03000 174.935
47.20000 177.196
47.37000 173.460
47.54000 163.659
47.71000 169.984
47.88000 158.105
48.05000 156.896
48.22000 160.662
48.39000 164.371
48.56000 147.943
48.73000 155.562
48.90000 153.774
49.07000 145.119
49.24000 160.288
49.41000 153.512
49.58000 152.138
49.75000 154.220
49.92000 153.948
50.09000 150.091
50.26000 150.629
50.43000 164.475
50.60000 165.092
50.77000 161.053
50.94000 150.981
51.11000 148.303
51.28000 153.064
51.45000 142.463
51.62000 144.443
51.79000 152.063
51.96000 134.813
52.13000 133.433
52.30000 139.662
52.47000 141.823
52.64000 135.162
52.81000 137.840
52.98000 137.450
53.15000 142.744
53.32000 133.558
53.49000 145.053
53.66000 136.793
53.83000 145.732
54.00000 139.989
54.17000 132.157
54.34000 137.571
54.51000 141.837
54.68000 149.738
54.85000 141.868
55.02000 142.503
55.19000 154.352
55.36000 156.896
55.53000 184.222
55.70000 222.598
55.87000 326.621
56.04000 319.216
56.21000 233.006
56.38000 179.548
56.55000 158.148
56.72000 133.362
56.89000 125.096
57.06000 125.088
57.23000 130.179
57.40000 115.430
57.57000 126.606
57.74000 120.955
57.91000 122.068
58.08000 126.902
58.25000 129.857
58.42000 119.069
58.59000 117.480
58.76000 123.138
58.93000 119.174
59.10000 115.013
59.27000 118.008
59.44000 124.186
59.61000 120.121
59.78000 125.748
59.95000 117.113
60.12000 118.516
60.29000 118.906
60.46000 132.644
60.63000 117.236
60.80000 111.809
60.97000 123.906
61.14000 128.904
61.31000 129.403
61.48000 134.554
61.65000 302.415
61.82000 190.779
61.99000 122.941
62.16000 125.853
62.33000 130.958
62.50000 132.629
62.67000 135.038
62.84000 132.793
63.01000 131.451
63.18000 137.815
63.35000 131.402
63.52000 133.446
63.69000 134.168
63.86000 143.565
64.03000 150.570
64.20000 145.100
64.37000 157.903
64.54000 160.465
64.71000 173.051
64.88000 170.988
65.05000 182.880
65.22000 218.239
65.39000 248.246
65.56000 308.205
65.73000 1012.755
65.90000 1958.334
66.07000 518.339
66.24000 409.047
66.41000 661.683
66.58000 422.980
66.75000 344.818
66.92000 365.112
67.09000 389.117
67.26000 405.222
67.43000 417.478
67.60000 445.629
67.77000 473.297
67.94000 509.685
68.11000 501.070
68.28000 582.931
68.45000 667.580
68.62000 901.780
68.79000 1590.614
68.96000 9173.051
69.13000 44687.313
69.30000 24680.189
69.47000 5996.436
69.64000 929.378
69.81000 624.711
69.98000 526.009
70.00000 511.971

File: BTO_Mapping_Theta2Theta_07-10-2025_001_18_-1-045_9-945.xy
20.00000 472.073
20.17000 471.937
20.34000 466.557
20.51000 450.501
20.68000 474.035
20.85000 454.649
21.02000 465.134
21.19000 452.796
21.36000 479.368
21.53000 462.117
21.70000 465.086
21.87000 492.039
22.04000 527.950
22.21000 517.876
22.38000 469.260
22.55000 446.939
22.72000 446.115
22.89000 426.862
23.06000 428.206
23.23000 445.609
23.40000 425.423
23.57000 439.397
23.74000 444.878
23.91000 491.364
24.08000 479.574
24.25000 452.051
24.42000 427.607
24.59000 413.156
24.76000 408.390
24.93000 403.449
25.10000 388.232
25.27000 388.363
25.44000 401.542
25.61000 396.151
25.78000 394.935
25.95000 394.354
26.12000 398.143
26.29000 375.341
26.46000 376.395
26.63000 371.354
26.80000 376.381
26.97000 372.066
27.14000 375.670
27.31000 368.874
27.48000 385.464
27.65000 363.592
27.82000 379.532
27.99000 368.326
28.16000 356.172
28.33000 351.197
28.50000 355.151
28.67000 342.584
28.84000 363.182
29.01000 351.164
29.18000 337.867
29.35000 345.830
29.52000 364.238
29.69000 355.183
29.86000 357.222
30.03000 375.329
30.20000 381.514
30.37000 359.138
30.54000 364.003
30.71000 371.317
30.88000 383.510
31.05000 471.028
31.22000 823.339
31.39000 1185.494
31.56000 846.375
31.73000 467.356
31.90000 375.618
32.07000 336.969
32.24000 317.171
32.41000 318.673
32.58000 314.715
32.75000 307.416
32.92000 506.443
33.09000 416.268
33.26000 292.677
33.43000 289.539
33.60000 302.873
33.77000 289.443
33.94000 300.303
34.11000 309.672
34.28000 332.781
34.45000 322.532
34.62000 304.216
34.79000 285.678
34.96000 292.146
35.13000 263.756
35.30000 259.054
35.47000 254.416
35.64000 270.856
35.81000 258.071
35.98000 243.434
36.15000 258.066
36.32000 251.225
36.49000 251.694
36.66000 256.505
36.83000 272.077
37.00000 278.468
37.17000 272.138
37.34000 256.918
37.51000 256.854
37.68000 251.442
37.85000 254.085
38.02000 257.922
38.19000 239.582
38.36000 300.063
38.53000 513.770
38.70000 904.047
38.87000 695.429
39.04000 319.227
39.21000 258.450
39.38000 252.713
39.55000 232.950
39.72000 224.833
39.89000 234.696
40.06000 223.142
40.23000 216.565
40.40000 216.160
40.57000 212.304
40.74000 208.822
40.91000 210.280
41.08000 214.579
41.25000 199.461
41.42000 199.283
41.59000 210.312
41.76000 204.659
41.93000 206.727
42.10000 214.805
42.27000 198.170
42.44000 213.299
42.61000 204.457
42.78000 203.218
42.95000 195.155
43.12000 199.218
43.29000 199.818
43.46000 191.882
43.63000 199.575
43.80000 185.270
43.97000 197.082
44.14000 189.691
44.31000 187.410
44.48000 205.566
44.65000 219.751
44.82000 221.175
44.99000 247.554
45.16000 247.401
45.33000 223.978
45.50000 214.780
45.67000 196.839
45.84000 187.647
46.01000 176.271
46.18000 174.419
46.35000 175.213
46.52000 165.941
46.69000 176.122
46.86000 181.834
47.03000 182.863
47.20000 168.465
47.37000 163.503
47.54000 154.586
47.71000 150.730
47.88000 157.384
48.05000 155.590
48.22000 155.881
48.39000 161.896
48.56000 154.461
48.73000 158.861
48.90000 158.252
49.07000 154.876
49.24000 144.321
49.41000 151.789
49.58000 155.864
49.75000 158.177
49.92000 148.318
50.09000 147.338
50.26000 152.738
50.43000 160.134
50.60000 157.004
50.77000 164.673
50.94000 163.317
51.11000 150.622
51.28000 150.900
51.45000 151.638
51.62000 142.257
51.79000 151.624
51.96000 135.302
52.13000 139.403
52.30000 139.598
52.47000 144.222
52.64000 136.537
52.81000 137.552
52.98000 130.503
53.15000 140.184
53.32000 156.009
53.49000 157.922
53.66000 150.643
53.83000 140.036
54.00000 138.512
54.17000 139.431
54.34000 126.787
54.51000 140.106
54.68000 130.435
54.85000 132.446
55.02000 150.113
55.19000 149.156
55.36000 162.826
55.53000 200.363
55.70000 300.881
55.87000 490.181
56.04000 527.561
56.21000 312.362
56.38000 199.140
56.55000 157.780
56.72000 141.612
56.89000 130.508
57.06000 125.819
57.23000 124.570
57.40000 128.004
57.57000 130.974
57.74000 128.838
57.91000 130.455
58.08000 123.207
58.25000 124.397
58.42000 120.313
58.59000 122.516
58.76000 127.799
58.93000 118.432
59.10000 114.967
59.27000 113.544
59.44000 109.840
59.61000 114.194
59.78000 117.999
59.95000 126.659
60.12000 110.644
60.29000 114.159
60.46000 113.589
60.63000 100.799
60.80000 118.165
60.97000 118.080
61.14000 120.163
61.31000 126.024
61.48000 130.625
61.65000 281.152
61.82000 181.925
61.99000 118.536
62.16000 119.895
62.33000 125.871
62.50000 119.335
62.67000 126.362
62.84000 126.650
63.01000 137.835
63.18000 127.766
63.35000 135.455
63.52000 135.735
63.69000 128.732
63.86000 131.358
64.03000 147.274
64.20000 148.168
64.37000 146.779
64.54000 160.258
64.71000 171.577
64.88000 175.527
65.05000 190.383
65.22000 211.052
65.39000 243.008
65.56000 317.393
65.73000 1039.980
65.90000 1901.809
66.07000 476.977
66.24000 384.754
66.41000 617.144
66.58000 393.399
66.75000 338.025
66.92000 361.747
67.09000 374.498
67.26000 410.113
67.43000 417.984
67.60000 419.560
67.77000 462.731
67.94000 509.717
68.11000 512.128
68.28000 585.314
68.45000 646.115
68.62000 864.860
68.79000 1552.026
68.96000 9347.487
69.13000 43634.941
69.30000 23402.938
69.47000 5619.637
69.64000 904.299
69.81000 611.941
69.98000 511.119
70.00000 500.801

File: BTO_Mapping_Theta2Theta_07-10-2025_001_19_-2-091_19-890.xy
20.00000 472.273
20.17000 491.038
20.34000 462.895
20.51000 455.735
20.68000 461.623
20.85000 466.594
21.02000 434.210
21.19000 463.102
21.36000 472.780
21.53000 462.673
21.70000 449.142
21.87000 484.465
22.04000 522.005
22.21000 493.297
22.38000 442.724
22.55000 460.083
22.72000 414.902
22.89000 431.848
23.06000 430.795
23.23000 426.947
23.40000 436.939
23.57000 422.253
23.74000 436.529
23.91000 485.966
24.08000 468.879
24.25000 433.371
24.42000 397.548
24.59000 420.871
24.76000 401.970
24.93000 394.214
25.10000 410.476
25.27000 384.182
25.44000 400.139
25.61000 398.649
25.78000 405.780
25.95000 365.195
26.12000 413.525
26.29000 371.354
26.46000 381.633
26.63000 364.957
26.80000 392.401
26.97000 385.897
27.14000 355.534
27.31000 362.098
27.48000 369.929
27.65000 359.601
27.82000 352.576
27.99000 359.653
28.16000 356.401
28.33000 359.728
28.50000 344.203
28.67000 348.710
28.84000 340.369
29.01000 347.776
29.18000 335.371
29.35000 367.914
29.52000 342.007
29.69000 343.994
29.86000 383.390
30.03000 379.437
30.20000 375.251
30.37000 346.387
30.54000 379.901
30.71000 369.860
30.88000 380.801
31.05000 467.790
31.22000 820.159
31.39000 1247.218
31.56000 885.252
31.73000 477.643
31.90000 362.568
32.07000 331.154
32.24000 349.060
32.41000 353.606
32.58000 318.990
32.75000 319.054
32.92000 506.982
33.09000 410.868
33.26000 290.615
33.43000 282.497
33.60000 300.055
33.77000 291.983
33.94000 290.443
34.11000 306.180
34.28000 328.791
34.45000 324.508
34.62000 306.527
34.79000 286.442
34.96000 266.908
35.13000 267.581
35.30000 259.282
35.47000 271.835
35.64000 249.759
35.81000 257.618
35.98000 251.182
36.15000 261.282
36.32000 267.978
36.49000 247.148
36.66000 238.838
36.83000 267.281
37.00000 272.366
37.17000 259.187
37.34000 255.115
37.51000 263.024
37.68000 248.334
37.85000 251.514
38.02000 265.169
38.19000 257.713
38.36000 292.501
38.53000 471.948
38.70000 852.923
38.87000 624.163
39.04000 319.117
39.21000 236.158
39.38000 245.118
39.55000 245.014
39.72000 215.439
39.89000 226.337
40.06000 221.401
40.23000 214.652
40.40000 226.743
40.57000 214.096
40.74000 205.692
40.91000 213.045
41.08000 217.426
41.25000 207.314
41.42000 200.739
41.59000 198.380
41.76000 203.786
41.93000 203.462
42.10000 210.515
42.27000 209.266
42.44000 198.122
42.61000 202.957
42.78000 201.155
42.95000 203.778
43.12000 189.340
43.29000 191.353
43.46000 188.150
43.63000 192.968
43.80000 204.445
43.97000 195.449
44.14000 185.168
44.31000 184.340
44.48000 212.276
44.65000 214.294
44.82000 214.214
44.99000 220.519
45.16000 220.346
45.33000 216.630
45.50000 198.502
45.67000 198.268
45.84000 175.287
46.01000 185.478
46.18000 174.487
46.35000 174.478
46.52000 173.899
46.69000 165.946
46.86000 172.463
47.03000 174.955
47.20000 161.271
47.37000 148.734
47.54000 150.436
47.71000 148.610
47.88000 163.531
48.05000 163.918
48.22000 163.619
48.39000 169.534
48.56000 157.044
48.73000 151.721
48.90000 150.568
49.07000 138.361
49.24000 160.563
49.41000 152.794
49.58000 142.207
49.75000 150.335
49.92000 149.937
50.09000 155.778
50.26000 166.017
50.43000 146.970
50.60000 167.302
50.77000 158.013
50.94000 156.634
51.11000 151.891
51.28000 152.352
51.45000 141.543
51.62000 143.274
51.79000 132.992
51.96000 151.579
52.13000 131.987
52.30000 142.009
52.47000 137.767
52.64000 138.863
52.81000 128.789
52.98000 141.763
53.15000 140.522
53.32000 149.855
53.49000 150.719
53.66000 142.269
53.83000 140.678
54.00000 138.739
54.17000 138.471
54.34000 138.872
54.51000 139.251
54.68000 142.575
54.85000 147.901
55.02000 141.051
55.19000 134.752
55.36000 151.272
55.53000 193.408
55.70000 289.920
55.87000 464.421
56.04000 483.643
56.21000 312.194
56.38000 188.616
56.55000 149.090
56.72000 149.169
56.89000 133.139
57.06000 128.706
57.23000 121.774
57.40000 123.638
57.57000 131.827
57.74000 123.260
57.91000 121.239
58.08000 124.581
58.25000 124.869
58.42000 120.638
58.59000 122.277
58.76000 120.598
58.93000 119.836
59.10000 119.884
59.27000 116.287
59.44000 116.970
59.61000 111.359
59.78000 123.134
59.95000 119.657
60.12000 120.518
60.29000 117.815
60.46000 117.124
60.63000 117.128
60.80000 118.408
60.97000 116.048
61.14000 123.652
61.31000 120.872
61.48000 130.112
61.65000 285.247
61.82000 196.448
61.99000 127.963
62.16000 113.760
62.33000 125.914
62.50000 127.740
62.67000 123.063
62.84000 124.435
63.01000 138.929
63.18000 121.733
63.35000 123.305
63.52000 129.337
63.69000 133.224
63.86000 140.070
64.03000 142.570
64.20000 147.852
64.37000 156.299
64.54000 155.408
64.71000 170.537
64.88000 185.321
65.05000 190.814
65.22000 211.202
65.39000 259.285
65.56000 316.785
65.73000 1046.004
65.90000 1921.582
66.07000 493.060
66.24000 375.343
66.41000 620.272
66.58000 432.413
66.75000 362.125
66.92000 353.884
67.09000 374.558
67.26000 390.096
67.43000 413.178
67.60000 437.813
67.77000 460.614
67.94000 480.051
68.11000 532.422
68.28000 552.451
68.45000 642.918
68.62000 894.731
68.79000 1594.561
68.96000 9413.045
69.13000 43933.207
69.30000 23621.666
69.47000 5687.755
69.64000 883.997
69.81000 611.408
69.98000 510.533
70.00000 495.864

File: BTO_Mapping_Theta2Theta_07-10-2025_001_21_-4-181_39-781.xy
20.00000 476.533
20.17000 456.612
20.34000 463.084
20.51000 471.204
20.68000 474.947
20.85000 462.109
21.02000 467.690
21.19000 476.365
21.36000 439.108
21.53000 459.019
21.70000 452.634
21.87000 477.150
22.04000 491.873
22.21000 502.093
22.38000 473.981
22.55000 448.219
22.72000 415.835
22.89000 437.014
23.06000 442.492
23.23000 431.968
23.40000 444.019
23.57000 431.672
23.74000 455.730
23.91000 504.298
24.08000 502.410
24.25000 449.586
24.42000 416.403
24.59000 413.026
24.76000 410.386
24.93000 410.756
25.10000 396.530
25.27000 396.554
25.44000 389.651
25.61000 393.493
25.78000 400.722
25.95000 389.769
26.12000 372.883
26.29000 383.173
26.46000 385.963
26.63000 388.011
26.80000 355.131
26.97000 364.372
27.14000 384.865
27.31000 377.853
27.48000 351.611
27.65000 368.685
27.82000 377.506
27.99000 357.910
28.16000 362.945
28.33000 349.521
28.50000 348.224
28.67000 356.997
28.84000 381.068
29.01000 356.501
29.18000 351.906
29.35000 358.358
29.52000 333.475
29.69000 357.053
29.86000 361.671
30.03000 380.875
30.20000 372.416
30.37000 366.390
30.54000 345.122
30.71000 368.329
30.88000 403.668
31.05000 472.799
31.22000 791.339
31.39000 1157.657
31.56000 823.319
31.73000 461.399
31.90000 394.507
32.07000 347.813
32.24000 351.470
32.41000 324.011
32.58000 322.901
32.75000 318.894
32.92000 515.169
33.09000 442.279
33.26000 290.057
33.43000 303.816
33.60000 303.282
33.77000 283.665
33.94000 294.745
34.11000 306.148
34.28000 305.452
34.45000 312.766
34.62000 290.196
34.79000 299.665
34.96000 290.062
35.13000 271.780
35.30000 256.529
35.47000 251.082
35.64000 259.795
35.81000 265.215
35.98000 256.366
36.15000 251.424
36.32000 253.284
36.49000 246.990
36.66000 252.550
36.83000 250.519
37.00000 283.917
37.17000 268.457
37.34000 255.240
37.51000 247.656
37.68000 250.241
37.85000 251.403
38.02000 256.800
38.19000 251.054
38.36000 275.511
38.53000 440.386
38.70000 714.648
38.87000 539.561
39.04000 303.973
39.21000 252.195
39.38000 220.135
39.55000 221.003
39.72000 238.398
39.89000 232.324
40.06000 222.419
40.23000 232.501
40.40000 216.827
40.57000 221.716
40.74000 204.890
40.91000 204.310
41.08000 212.109
41.25000 198.462
41.42000 211.731
41.59000 205.663
41.76000 196.491
41.93000 211.290
42.10000 207.824
42.27000 216.862
42.44000 206.418
42.61000 195.633
42.78000 203.258
42.95000 201.617
43.12000 193.569
43.29000 185.338
43.46000 192.908
43.63000 198.279
43.80000 182.653
43.97000 183.172
44.14000 183.540
44.31000 182.541
44.48000 201.561
44.65000 208.718
44.82000 209.454
44.99000 215.237
45.16000 230.315
45.33000 207.713
45.50000 205.043
45.67000 197.062
45.84000 191.538
46.01000 175.484
46.18000 177.124
46.35000 168.640
46.52000 173.412
46.69000 178.523
46.86000 174.640
47.03000 168.824
47.20000 171.888
47.37000 150.021
47.54000 163.466
47.71000 160.433
47.88000 150.618
48.05000 159.215
48.22000 166.099
48.39000 164.059
48.56000 160.878
48.73000 153.254
48.90000 158.399
49.07000 155.076
49.24000 154.246
49.41000 158.036
49.58000 157.630
49.75000 159.447
49.92000 146.401
50.09000 151.441
50.26000 157.507
50.43000 151.133
50.60000 166.036
50.77000 166.548
50.94000 147.718
51.11000 143.474
51.28000 138.052
51.45000 138.477
51.62000 137.006
51.79000 136.255
51.96000 128.763
52.13000 142.142
52.30000 136.306
52.47000 139.995
52.64000 145.237
52.81000 137.329
52.98000 141.145
53.15000 136.924
53.32000 143.459
53.49000 137.992
53.66000 135.631
53.83000 136.023
54.00000 136.313
54.17000 130.268
54.34000 136.818
54.51000 138.333
54.68000 134.913
54.85000 131.452
55.02000 141.538
55.19000 139.793
55.36000 158.852
55.53000 166.637
55.70000 256.823
55.87000 344.245
56.04000 356.132
56.21000 254.553
56.38000 186.660
56.55000 155.761
56.72000 133.042
56.89000 142.628
57.06000 130.097
57.23000 132.666
57.40000 122.276
57.57000 124.938
57.74000 129.590
57.91000 118.940
58.08000 120.774
58.25000 123.295
58.42000 117.652
58.59000 114.111
58.76000 115.239
58.93000 121.249
59.10000 124.774
59.27000 115.238
59.44000 118.785
59.61000 122.574
59.78000 114.639
59.95000 116.614
60.12000 122.499
60.29000 115.128
60.46000 117.153
60.63000 121.297
60.80000 124.215
60.97000 117.681
61.14000 124.905
61.31000 135.921
61.48000 140.177
61.65000 276.070
61.82000 190.920
61.99000 139.573
62.16000 128.189
62.33000 134.614
62.50000 121.677
62.67000 133.482
62.84000 143.969
63.01000 130.758
63.18000 130.726
63.35000 135.622
63.52000 136.576
63.69000 129.469
63.86000 142.968
64.03000 149.499
64.20000 152.936
64.37000 151.105
64.54000 165.632
64.71000 168.029
64.88000 173.550
65.05000 197.865
65.22000 218.062
65.39000 241.357
65.56000 335.242
65.73000 1080.407
65.90000 1946.537
66.07000 500.984
66.24000 412.576
66.41000 631.552
66.58000 423.567
66.75000 357.564
66.92000 350.432
67.09000 376.206
67.26000 397.634
67.43000 421.347
67.60000 447.610
67.77000 467.586
67.94000 509.685
68.11000 526.691
68.28000 575.118
68.45000 661.820
68.62000 924.214
68.79000 1636.345
68.96000 9940.112
69.13000 44783.805
69.30000 24005.328
69.47000 5651.860
69.64000 881.444
69.81000 599.881
69.98000 533.157
70.00000 519.969