Folder: Master-Thesis/XRD/XRD/07-10-2025 Dep 6/XY Data (part 4)

File: BTO_Mapping_Theta2Theta_07-10-2025_001_23_-10-000_17-321.xy
20.00000 460.477
20.17000 477.002
20.34000 470.954
20.51000 482.316
20.68000 455.012
20.85000 448.049
21.02000 449.979
21.19000 464.662
21.36000 470.053
21.53000 454.983
21.70000 465.314
21.87000 480.003
22.04000 545.804
22.21000 539.627
22.38000 470.537
22.55000 428.341
22.72000 428.626
22.89000 425.554
23.06000 426.141
23.23000 429.525
23.40000 426.988
23.57000 444.379
23.74000 429.623
23.91000 491.086
24.08000 458.666
24.25000 436.277
24.42000 398.710
24.59000 407.202
24.76000 410.059
24.93000 400.297
25.10000 400.770
25.27000 392.360
25.44000 397.361
25.61000 388.304
25.78000 393.242
25.95000 379.632
26.12000 385.333
26.29000 376.451
26.46000 398.417
26.63000 387.892
26.80000 371.926
26.97000 379.997
27.14000 363.128
27.31000 367.281
27.48000 366.809
27.65000 368.115
27.82000 369.663
27.99000 366.512
28.16000 371.754
28.33000 364.165
28.50000 356.669
28.67000 334.769
28.84000 362.071
29.01000 343.019
29.18000 353.728
29.35000 368.177
29.52000 342.339
29.69000 343.409
29.86000 351.310
30.03000 365.180
30.20000 360.952
30.37000 327.973
30.54000 355.356
30.71000 344.434
30.88000 391.844
31.05000 444.034
31.22000 795.292
31.39000 1123.255
31.56000 781.970
31.73000 469.122
31.90000 342.422
32.07000 347.275
32.24000 314.665
32.41000 320.168
32.58000 306.166
32.75000 310.416
32.92000 488.921
33.09000 427.517
33.26000 310.024
33.43000 276.468
33.60000 280.090
33.77000 289.503
33.94000 288.722
34.11000 296.342
34.28000 321.557
34.45000 326.455
34.62000 290.333
34.79000 297.777
34.96000 285.463
35.13000 272.961
35.30000 273.153
35.47000 251.333
35.64000 255.152
35.81000 248.746
35.98000 258.515
36.15000 246.518
36.32000 244.924
36.49000 256.584
36.66000 246.884
36.83000 257.824
37.00000 276.495
37.17000 278.416
37.34000 254.662
37.51000 241.885
37.68000 241.630
37.85000 243.045
38.02000 261.345
38.19000 255.183
38.36000 298.381
38.53000 532.307
38.70000 934.809
38.87000 728.842
39.04000 317.181
39.21000 236.738
39.38000 230.049
39.55000 226.756
39.72000 216.307
39.89000 228.648
40.06000 214.483
40.23000 222.131
40.40000 230.900
40.57000 206.823
40.74000 213.262
40.91000 224.888
41.08000 215.208
41.25000 226.511
41.42000 208.780
41.59000 198.791
41.76000 214.840
41.93000 199.369
42.10000 211.368
42.27000 195.110
42.44000 204.611
42.61000 204.013
42.78000 199.482
42.95000 200.513
43.12000 189.193
43.29000 195.891
43.46000 198.563
43.63000 180.523
43.80000 190.433
43.97000 199.636
44.14000 195.008
44.31000 200.685
44.48000 191.999
44.65000 215.506
44.82000 222.162
44.99000 260.822
45.16000 249.548
45.33000 227.320
45.50000 201.432
45.67000 196.657
45.84000 199.001
46.01000 187.879
46.18000 172.328
46.35000 175.414
46.52000 161.755
46.69000 170.169
46.86000 171.470
47.03000 155.462
47.20000 161.472
47.37000 155.529
47.54000 163.916
47.71000 158.324
47.88000 151.563
48.05000 162.223
48.22000 164.429
48.39000 148.586
48.56000 150.478
48.73000 158.654
48.90000 156.508
49.07000 154.557
49.24000 148.871
49.41000 156.001
49.58000 156.739
49.75000 149.850
49.92000 148.379
50.09000 141.524
50.26000 153.404
50.43000 155.182
50.60000 164.366
50.77000 159.711
50.94000 151.915
51.11000 155.563
51.28000 149.399
51.45000 140.150
51.62000 144.817
51.79000 130.197
51.96000 140.693
52.13000 136.947
52.30000 135.823
52.47000 134.404
52.64000 136.880
52.81000 137.512
52.98000 123.696
53.15000 132.771
53.32000 147.398
53.49000 157.329
53.66000 143.199
53.83000 140.405
54.00000 139.054
54.17000 131.641
54.34000 122.094
54.51000 131.156
54.68000 129.815
54.85000 150.748
55.02000 143.087
55.19000 136.438
55.36000 153.964
55.53000 193.303
55.70000 315.512
55.87000 526.001
56.04000 550.856
56.21000 325.209
56.38000 193.984
56.55000 141.453
56.72000 131.724
56.89000 129.580
57.06000 132.852
57.23000 126.809
57.40000 128.473
57.57000 122.265
57.74000 122.559
57.91000 112.753
58.08000 123.027
58.25000 123.471
58.42000 121.574
58.59000 116.029
58.76000 127.634
58.93000 113.961
59.10000 116.750
59.27000 121.613
59.44000 112.007
59.61000 121.565
59.78000 107.527
59.95000 115.412
60.12000 115.430
60.29000 114.723
60.46000 113.480
60.63000 109.644
60.80000 118.970
60.97000 121.432
61.14000 118.213
61.31000 122.324
61.48000 137.187
61.65000 285.304
61.82000 183.091
61.99000 134.199
62.16000 121.761
62.33000 119.762
62.50000 117.791
62.67000 117.323
62.84000 130.554
63.01000 128.792
63.18000 127.573
63.35000 126.786
63.52000 129.939
63.69000 134.881
63.86000 146.580
64.03000 145.570
64.20000 145.333
64.37000 155.749
64.54000 155.173
64.71000 164.232
64.88000 172.244
65.05000 179.862
65.22000 233.233
65.39000 256.947
65.56000 315.903
65.73000 1051.582
65.90000 1925.969
66.07000 480.725
66.24000 394.661
66.41000 618.065
66.58000 398.573
66.75000 357.987
66.92000 342.693
67.09000 374.018
67.26000 401.380
67.43000 396.681
67.60000 433.884
67.77000 439.624
67.94000 490.138
68.11000 521.217
68.28000 572.420
68.45000 664.784
68.62000 906.833
68.79000 1616.831
68.96000 9824.475
69.13000 44030.117
69.30000 23579.215
69.47000 5562.002
69.64000 886.969
69.81000 599.901
69.98000 508.521
70.00000 493.828

File: BTO_Mapping_Theta2Theta_07-10-2025_001_24_-15-000_25-981.xy
20.00000 465.884
20.17000 439.489
20.34000 459.855
20.51000 469.145
20.68000 468.809
20.85000 465.740
21.02000 447.689
21.19000 459.469
21.36000 477.846
21.53000 451.631
21.70000 465.055
21.87000 489.429
22.04000 556.917
22.21000 526.978
22.38000 473.997
22.55000 449.879
22.72000 433.013
22.89000 432.683
23.06000 432.634
23.23000 418.517
23.40000 437.053
23.57000 433.278
23.74000 444.170
23.91000 463.961
24.08000 464.132
24.25000 440.855
24.42000 412.100
24.59000 392.946
24.76000 417.292
24.93000 404.721
25.10000 395.206
25.27000 398.981
25.44000 389.572
25.61000 388.926
25.78000 380.090
25.95000 386.192
26.12000 389.125
26.29000 384.270
26.46000 367.743
26.63000 378.623
26.80000 381.166
26.97000 380.276
27.14000 380.829
27.31000 382.094
27.48000 375.102
27.65000 374.029
27.82000 366.430
27.99000 350.857
28.16000 356.524
28.33000 350.243
28.50000 356.277
28.67000 343.321
28.84000 349.844
29.01000 337.954
29.18000 341.892
29.35000 342.269
29.52000 340.627
29.69000 340.632
29.86000 353.813
30.03000 360.118
30.20000 370.435
30.37000 340.241
30.54000 343.179
30.71000 336.524
30.88000 384.122
31.05000 465.029
31.22000 781.904
31.39000 1145.341
31.56000 755.121
31.73000 449.940
31.90000 351.538
32.07000 328.619
32.24000 322.215
32.41000 323.355
32.58000 328.091
32.75000 304.716
32.92000 480.666
33.09000 383.299
33.26000 300.432
33.43000 286.416
33.60000 295.212
33.77000 298.781
33.94000 300.852
34.11000 305.572
34.28000 327.935
34.45000 320.531
34.62000 292.625
34.79000 272.902
34.96000 276.576
35.13000 261.078
35.30000 251.637
35.47000 272.096
35.64000 257.654
35.81000 253.611
35.98000 262.260
36.15000 270.895
36.32000 247.418
36.49000 256.565
36.66000 250.731
36.83000 271.651
37.00000 273.359
37.17000 265.118
37.34000 247.845
37.51000 253.930
37.68000 245.001
37.85000 242.880
38.02000 236.372
38.19000 257.662
38.36000 299.125
38.53000 539.909
38.70000 902.497
38.87000 722.204
39.04000 320.734
39.21000 230.348
39.38000 242.409
39.55000 234.207
39.72000 226.624
39.89000 210.726
40.06000 224.406
40.23000 204.690
40.40000 218.186
40.57000 204.829
40.74000 218.650
40.91000 216.115
41.08000 197.643
41.25000 210.165
41.42000 203.348
41.59000 206.052
41.76000 189.095
41.93000 206.268
42.10000 212.880
42.27000 205.174
42.44000 215.974
42.61000 198.426
42.78000 193.598
42.95000 195.876
43.12000 190.771
43.29000 204.560
43.46000 194.308
43.63000 192.622
43.80000 181.202
43.97000 193.202
44.14000 176.156
44.31000 184.506
44.48000 197.072
44.65000 205.192
44.82000 225.160
44.99000 267.536
45.16000 267.742
45.33000 225.980
45.50000 218.761
45.67000 201.588
45.84000 203.347
46.01000 181.985
46.18000 177.925
46.35000 168.049
46.52000 165.739
46.69000 170.959
46.86000 157.430
47.03000 171.900
47.20000 152.254
47.37000 170.482
47.54000 158.107
47.71000 158.477
47.88000 165.027
48.05000 150.748
48.22000 145.300
48.39000 155.845
48.56000 156.812
48.73000 152.772
48.90000 152.783
49.07000 152.467
49.24000 144.961
49.41000 155.433
49.58000 155.445
49.75000 157.254
49.92000 148.417
50.09000 154.299
50.26000 143.241
50.43000 158.663
50.60000 183.132
50.77000 162.043
50.94000 148.803
51.11000 162.543
51.28000 151.202
51.45000 137.588
51.62000 135.449
51.79000 141.678
51.96000 135.937
52.13000 142.570
52.30000 138.527
52.47000 139.050
52.64000 132.731
52.81000 130.872
52.98000 136.933
53.15000 145.446
53.32000 146.262
53.49000 156.542
53.66000 145.247
53.83000 140.955
54.00000 139.913
54.17000 139.619
54.34000 132.694
54.51000 140.108
54.68000 149.672
54.85000 130.899
55.02000 134.535
55.19000 148.014
55.36000 158.425
55.53000 194.665
55.70000 309.440
55.87000 527.332
56.04000 531.384
56.21000 343.034
56.38000 190.679
56.55000 147.669
56.72000 138.842
56.89000 130.142
57.06000 129.006
57.23000 128.611
57.40000 124.872
57.57000 132.280
57.74000 122.159
57.91000 129.007
58.08000 119.164
58.25000 123.828
58.42000 119.926
58.59000 119.159
58.76000 113.250
58.93000 123.066
59.10000 128.580
59.27000 118.553
59.44000 115.403
59.61000 116.083
59.78000 103.528
59.95000 113.034
60.12000 113.696
60.29000 110.246
60.46000 112.234
60.63000 110.272
60.80000 123.588
60.97000 116.780
61.14000 117.557
61.31000 118.526
61.48000 137.101
61.65000 289.559
61.82000 191.759
61.99000 128.498
62.16000 134.844
62.33000 125.211
62.50000 118.863
62.67000 125.148
62.84000 127.713
63.01000 125.553
63.18000 129.422
63.35000 134.209
63.52000 125.706
63.69000 136.398
63.86000 143.835
64.03000 142.528
64.20000 149.807
64.37000 147.730
64.54000 163.215
64.71000 160.257
64.88000 173.534
65.05000 183.217
65.22000 218.982
65.39000 239.685
65.56000 319.375
65.73000 1110.437
65.90000 1938.793
66.07000 480.616
66.24000 399.196
66.41000 623.687
66.58000 409.061
66.75000 365.580
66.92000 355.735
67.09000 371.675
67.26000 381.198
67.43000 411.547
67.60000 436.713
67.77000 457.113
67.94000 474.932
68.11000 509.073
68.28000 565.040
68.45000 658.430
68.62000 925.199
68.79000 1605.772
68.96000 11165.212
69.13000 44553.859
69.30000 23226.848
69.47000 4977.296
69.64000 899.413
69.81000 593.532
69.98000 487.069
70.00000 481.382

File: BTO_Mapping_Theta2Theta_07-10-2025_001_25_-20-000_34-641.xy
20.00000 476.575
20.17000 474.973
20.34000 459.608
20.51000 452.599
20.68000 464.398
20.85000 459.134
21.02000 464.273
21.19000 465.689
21.36000 465.896
21.53000 454.865
21.70000 453.156
21.87000 490.232
22.04000 551.086
22.21000 531.259
22.38000 475.671
22.55000 452.394
22.72000 433.763
22.89000 437.832
23.06000 431.408
23.23000 425.476
23.40000 416.087
23.57000 421.006
23.74000 448.020
23.91000 465.318
24.08000 465.423
24.25000 429.534
24.42000 420.883
24.59000 404.945
24.76000 402.469
24.93000 388.990
25.10000 386.768
25.27000 403.238
25.44000 386.953
25.61000 389.866
25.78000 379.744
25.95000 368.159
26.12000 391.600
26.29000 371.653
26.46000 374.113
26.63000 370.290
26.80000 374.164
26.97000 373.184
27.14000 367.453
27.31000 350.215
27.48000 359.711
27.65000 353.158
27.82000 353.024
27.99000 359.642
28.16000 356.130
28.33000 365.247
28.50000 352.141
28.67000 345.983
28.84000 337.883
29.01000 349.391
29.18000 344.661
29.35000 346.896
29.52000 357.170
29.69000 356.734
29.86000 355.020
30.03000 376.941
30.20000 360.391
30.37000 372.882
30.54000 332.927
30.71000 369.602
30.88000 374.319
31.05000 455.179
31.22000 797.802
31.39000 1198.334
31.56000 865.596
31.73000 466.939
31.90000 374.610
32.07000 324.400
32.24000 342.926
32.41000 330.452
32.58000 316.715
32.75000 323.278
32.92000 505.134
33.09000 418.704
33.26000 302.366
33.43000 291.864
33.60000 289.961
33.77000 282.032
33.94000 304.738
34.11000 313.813
34.28000 315.903
34.45000 306.182
34.62000 308.475
34.79000 282.613
34.96000 268.377
35.13000 275.563
35.30000 259.280
35.47000 268.013
35.64000 258.741
35.81000 258.947
35.98000 264.077
36.15000 258.839
36.32000 246.117
36.49000 260.039
36.66000 250.209
36.83000 262.063
37.00000 261.365
37.17000 272.532
37.34000 259.255
37.51000 243.564
37.68000 262.298
37.85000 247.132
38.02000 245.953
38.19000 254.411
38.36000 291.662
38.53000 486.883
38.70000 890.904
38.87000 691.652
39.04000 317.967
39.21000 237.409
39.38000 215.673
39.55000 236.630
39.72000 237.663
39.89000 223.521
40.06000 223.387
40.23000 210.900
40.40000 216.067
40.57000 214.320
40.74000 204.670
40.91000 213.764
41.08000 207.173
41.25000 207.489
41.42000 217.017
41.59000 213.758
41.76000 201.416
41.93000 200.392
42.10000 199.301
42.27000 210.363
42.44000 208.462
42.61000 207.328
42.78000 195.074
42.95000 194.422
43.12000 203.587
43.29000 199.456
43.46000 212.871
43.63000 201.046
43.80000 188.247
43.97000 181.746
44.14000 180.823
44.31000 204.641
44.48000 198.760
44.65000 199.439
44.82000 237.440
44.99000 262.878
45.16000 263.370
45.33000 229.249
45.50000 208.384
45.67000 213.751
45.84000 180.267
46.01000 171.694
46.18000 183.023
46.35000 172.422
46.52000 173.803
46.69000 181.338
46.86000 162.396
47.03000 171.919
47.20000 173.344
47.37000 167.536
47.54000 156.284
47.71000 154.021
47.88000 164.903
48.05000 145.921
48.22000 152.474
48.39000 137.469
48.56000 163.303
48.73000 165.625
48.90000 152.603
49.07000 153.557
49.24000 140.675
49.41000 143.369
49.58000 146.325
49.75000 147.220
49.92000 137.435
50.09000 142.925
50.26000 152.058
50.43000 150.042
50.60000 161.816
50.77000 158.091
50.94000 156.485
51.11000 156.493
51.28000 145.588
51.45000 138.187
51.62000 150.751
51.79000 141.786
51.96000 134.646
52.13000 144.166
52.30000 143.109
52.47000 137.099
52.64000 142.182
52.81000 135.541
52.98000 138.099
53.15000 141.040
53.32000 153.807
53.49000 142.030
53.66000 141.442
53.83000 133.264
54.00000 138.433
54.17000 139.885
54.34000 135.524
54.51000 135.697
54.68000 143.750
54.85000 136.542
55.02000 144.162
55.19000 141.311
55.36000 152.787
55.53000 190.880
55.70000 313.680
55.87000 502.684
56.04000 550.550
56.21000 348.201
56.38000 196.818
56.55000 150.090
56.72000 137.419
56.89000 134.358
57.06000 121.964
57.23000 108.420
57.40000 127.897
57.57000 130.032
57.74000 126.124
57.91000 118.510
58.08000 116.880
58.25000 118.407
58.42000 112.686
58.59000 116.928
58.76000 114.268
58.93000 119.574
59.10000 121.910
59.27000 121.161
59.44000 119.940
59.61000 116.950
59.78000 124.980
59.95000 116.342
60.12000 104.610
60.29000 118.796
60.46000 107.490
60.63000 114.003
60.80000 115.511
60.97000 127.406
61.14000 110.411
61.31000 119.577
61.48000 127.559
61.65000 282.000
61.82000 186.824
61.99000 135.966
62.16000 125.453
62.33000 117.411
62.50000 122.366
62.67000 141.149
62.84000 125.403
63.01000 128.844
63.18000 132.925
63.35000 141.864
63.52000 137.358
63.69000 142.923
63.86000 145.762
64.03000 135.510
64.20000 149.044
64.37000 154.192
64.54000 165.533
64.71000 165.138
64.88000 168.749
65.05000 182.085
65.22000 224.400
65.39000 247.616
65.56000 322.171
65.73000 1067.733
65.90000 1905.223
66.07000 488.101
66.24000 387.332
66.41000 628.528
66.58000 421.754
66.75000 347.397
66.92000 373.510
67.09000 368.813
67.26000 393.563
67.43000 398.488
67.60000 434.263
67.77000 461.260
67.94000 503.074
68.11000 510.552
68.28000 556.123
68.45000 655.486
68.62000 905.837
68.79000 1641.274
68.96000 10309.438
69.13000 44199.105
69.30000 23465.432
69.47000 5438.304
69.64000 915.882
69.81000 613.374
69.98000 494.316
70.00000 484.109

File: BTO_Mapping_Theta2Theta_07-10-2025_001_26_-8-090_5-878.xy
20.00000 474.511
20.17000 470.741
20.34000 477.625
20.51000 475.328
20.68000 466.489
20.85000 456.510
21.02000 465.283
21.19000 461.220
21.36000 433.820
21.53000 465.211
21.70000 475.802
21.87000 487.372
22.04000 553.173
22.21000 511.355
22.38000 497.129
22.55000 458.206
22.72000 453.620
22.89000 425.258
23.06000 434.223
23.23000 417.232
23.40000 417.303
23.57000 429.798
23.74000 447.823
23.91000 460.749
24.08000 463.109
24.25000 471.957
24.42000 407.172
24.59000 424.771
24.76000 410.786
24.93000 397.010
25.10000 400.239
25.27000 389.414
25.44000 400.518
25.61000 400.181
25.78000 402.798
25.95000 382.493
26.12000 374.712
26.29000 371.474
26.46000 377.433
26.63000 378.868
26.80000 383.913
26.97000 373.178
27.14000 367.026
27.31000 360.899
27.48000 382.299
27.65000 375.679
27.82000 356.948
27.99000 379.251
28.16000 352.456
28.33000 341.790
28.50000 348.259
28.67000 354.442
28.84000 354.520
29.01000 359.963
29.18000 362.834
29.35000 351.809
29.52000 342.941
29.69000 348.573
29.86000 368.465
30.03000 377.272
30.20000 365.719
30.37000 349.374
30.54000 357.992
30.71000 347.086
30.88000 378.067
31.05000 457.518
31.22000 841.267
31.39000 1180.065
31.56000 761.815
31.73000 451.814
31.90000 373.171
32.07000 359.607
32.24000 329.072
32.41000 323.492
32.58000 309.677
32.75000 305.201
32.92000 481.410
33.09000 396.871
33.26000 310.447
33.43000 274.159
33.60000 283.081
33.77000 290.536
33.94000 294.320
34.11000 309.445
34.28000 303.031
34.45000 320.564
34.62000 295.565
34.79000 296.466
34.96000 274.022
35.13000 270.056
35.30000 252.550
35.47000 275.794
35.64000 260.101
35.81000 258.134
35.98000 247.652
36.15000 252.541
36.32000 261.662
36.49000 259.373
36.66000 246.386
36.83000 257.418
37.00000 262.553
37.17000 266.894
37.34000 250.344
37.51000 261.205
37.68000 251.480
37.85000 235.844
38.02000 248.860
38.19000 254.478
38.36000 299.124
38.53000 581.772
38.70000 990.087
38.87000 743.165
39.04000 338.648
39.21000 237.636
39.38000 241.975
39.55000 243.819
39.72000 230.555
39.89000 225.312
40.06000 213.426
40.23000 209.151
40.40000 211.233
40.57000 209.402
40.74000 211.439
40.91000 214.826
41.08000 212.789
41.25000 204.712
41.42000 217.123
41.59000 202.260
41.76000 211.091
41.93000 207.420
42.10000 212.774
42.27000 200.484
42.44000 208.737
42.61000 207.997
42.78000 201.113
42.95000 203.510
43.12000 203.715
43.29000 186.686
43.46000 200.404
43.63000 183.701
43.80000 178.093
43.97000 185.058
44.14000 183.850
44.31000 194.828
44.48000 204.240
44.65000 208.455
44.82000 221.861
44.99000 256.276
45.16000 259.283
45.33000 227.659
45.50000 208.727
45.67000 211.372
45.84000 190.012
46.01000 189.634
46.18000 187.373
46.35000 181.906
46.52000 182.204
46.69000 175.822
46.86000 173.061
47.03000 162.024
47.20000 172.960
47.37000 160.174
47.54000 159.239
47.71000 158.835
47.88000 163.295
48.05000 159.900
48.22000 147.678
48.39000 156.746
48.56000 157.814
48.73000 154.993
48.90000 155.598
49.07000 157.335
49.24000 158.485
49.41000 148.378
49.58000 144.757
49.75000 136.668
49.92000 140.554
50.09000 148.150
50.26000 156.012
50.43000 161.131
50.60000 164.575
50.77000 169.240
50.94000 151.466
51.11000 146.279
51.28000 152.333
51.45000 139.953
51.62000 131.859
51.79000 145.286
51.96000 142.995
52.13000 147.509
52.30000 130.300
52.47000 131.883
52.64000 134.690
52.81000 140.213
52.98000 135.573
53.15000 147.249
53.32000 152.609
53.49000 154.165
53.66000 139.274
53.83000 142.601
54.00000 133.672
54.17000 137.451
54.34000 137.402
54.51000 140.682
54.68000 132.511
54.85000 135.878
55.02000 152.794
55.19000 150.894
55.36000 159.450
55.53000 207.883
55.70000 352.851
55.87000 580.182
56.04000 548.827
56.21000 336.014
56.38000 207.367
56.55000 153.386
56.72000 147.175
56.89000 127.457
57.06000 124.388
57.23000 133.653
57.40000 134.876
57.57000 130.525
57.74000 117.487
57.91000 125.233
58.08000 128.817
58.25000 121.417
58.42000 120.111
58.59000 115.523
58.76000 124.719
58.93000 112.634
59.10000 122.019
59.27000 127.601
59.44000 117.911
59.61000 114.730
59.78000 119.029
59.95000 113.836
60.12000 118.711
60.29000 118.732
60.46000 108.878
60.63000 118.121
60.80000 119.163
60.97000 122.363
61.14000 126.064
61.31000 109.671
61.48000 131.456
61.65000 278.692
61.82000 188.281
61.99000 132.567
62.16000 123.228
62.33000 126.203
62.50000 124.983
62.67000 114.791
62.84000 128.947
63.01000 124.478
63.18000 130.488
63.35000 126.661
63.52000 127.859
63.69000 135.529
63.86000 145.308
64.03000 151.253
64.20000 149.746
64.37000 147.375
64.54000 163.295
64.71000 165.394
64.88000 180.196
65.05000 197.777
65.22000 210.060
65.39000 233.594
65.56000 324.608
65.73000 1054.648
65.90000 1960.607
66.07000 490.604
66.24000 383.147
66.41000 606.882
66.58000 413.399
66.75000 349.090
66.92000 375.274
67.09000 366.353
67.26000 403.379
67.43000 412.422
67.60000 432.215
67.77000 455.257
67.94000 492.227
68.11000 540.006
68.28000 554.919
68.45000 667.813
68.62000 873.830
68.79000 1565.772
68.96000 10060.642
69.13000 44749.078
69.30000 23876.951
69.47000 5594.478
69.64000 885.848
69.81000 598.628
69.98000 514.555
70.00000 509.558

File: BTO_Mapping_Theta2Theta_07-10-2025_001_28_-24-271_17-634.xy
20.00000 459.706
20.17000 480.577
20.34000 487.541
20.51000 465.619
20.68000 455.837
20.85000 468.785
21.02000 453.941
21.19000 452.108
21.36000 461.293
21.53000 448.698
21.70000 476.152
21.87000 516.107
22.04000 566.024
22.21000 533.435
22.38000 476.401
22.55000 457.327
22.72000 441.635
22.89000 428.620
23.06000 433.078
23.23000 456.819
23.40000 430.976
23.57000 419.828
23.74000 429.131
23.91000 445.493
24.08000 445.860
24.25000 409.191
24.42000 421.424
24.59000 407.572
24.76000 392.212
24.93000 393.172
25.10000 390.905
25.27000 398.298
25.44000 384.668
25.61000 393.750
25.78000 395.533
25.95000 378.451
26.12000 383.945
26.29000 375.878
26.46000 367.629
26.63000 360.685
26.80000 364.720
26.97000 378.610
27.14000 367.920
27.31000 354.898
27.48000 359.436
27.65000 378.301
27.82000 362.396
27.99000 362.913
28.16000 365.795
28.33000 364.309
28.50000 366.701
28.67000 346.045
28.84000 362.518
29.01000 370.732
29.18000 338.633
29.35000 356.123
29.52000 340.961
29.69000 359.185
29.86000 393.656
30.03000 394.207
30.20000 366.093
30.37000 372.142
30.54000 364.501
30.71000 356.334
30.88000 376.474
31.05000 565.273
31.22000 1209.645
31.39000 1753.001
31.56000 941.774
31.73000 457.470
31.90000 378.821
32.07000 331.241
32.24000 327.255
32.41000 335.692
32.58000 337.233
32.75000 324.127
32.92000 504.435
33.09000 417.332
33.26000 286.198
33.43000 291.982
33.60000 290.607
33.77000 293.151
33.94000 310.962
34.11000 298.486
34.28000 305.878
34.45000 326.550
34.62000 304.719
34.79000 279.306
34.96000 264.644
35.13000 272.962
35.30000 256.141
35.47000 267.269
35.64000 275.085
35.81000 251.549
35.98000 257.048
36.15000 248.799
36.32000 248.115
36.49000 252.795
36.66000 250.320
36.83000 260.653
37.00000 271.217
37.17000 263.063
37.34000 245.292
37.51000 247.189
37.68000 251.632
37.85000 235.117
38.02000 246.967
38.19000 267.717
38.36000 333.536
38.53000 606.144
38.70000 941.429
38.87000 683.132
39.04000 310.460
39.21000 246.235
39.38000 238.272
39.55000 225.395
39.72000 227.516
39.89000 202.172
40.06000 220.761
40.23000 226.026
40.40000 224.832
40.57000 220.708
40.74000 223.092
40.91000 210.982
41.08000 209.549
41.25000 199.446
41.42000 194.044
41.59000 209.805
41.76000 197.322
41.93000 199.844
42.10000 196.555
42.27000 200.108
42.44000 210.221
42.61000 196.378
42.78000 205.517
42.95000 186.544
43.12000 204.445
43.29000 193.486
43.46000 192.106
43.63000 192.127
43.80000 182.592
43.97000 193.755
44.14000 176.319
44.31000 195.408
44.48000 200.176
44.65000 207.068
44.82000 239.670
44.99000 274.457
45.16000 263.074
45.33000 246.550
45.50000 228.307
45.67000 203.340
45.84000 189.271
46.01000 180.672
46.18000 180.816
46.35000 178.878
46.52000 175.091
46.69000 182.002
46.86000 163.719
47.03000 160.088
47.20000 169.541
47.37000 160.597
47.54000 164.123
47.71000 154.524
47.88000 165.113
48.05000 147.398
48.22000 160.280
48.39000 164.370
48.56000 151.085
48.73000 156.765
48.90000 161.970
49.07000 141.848
49.24000 154.089
49.41000 152.075
49.58000 147.743
49.75000 161.516
49.92000 152.339
50.09000 149.321
50.26000 147.470
50.43000 186.479
50.60000 194.944
50.77000 179.279
50.94000 160.583
51.11000 157.641
51.28000 146.494
51.45000 154.238
51.62000 140.197
51.79000 142.457
51.96000 139.483
52.13000 134.711
52.30000 136.435
52.47000 140.540
52.64000 134.130
52.81000 141.766
52.98000 144.302
53.15000 137.386
53.32000 138.688
53.49000 142.800
53.66000 138.624
53.83000 136.244
54.00000 141.789
54.17000 135.131
54.34000 144.766
54.51000 140.565
54.68000 122.639
54.85000 132.702
55.02000 141.950
55.19000 149.126
55.36000 166.587
55.53000 229.368
55.70000 401.691
55.87000 585.796
56.04000 507.557
56.21000 295.745
56.38000 184.392
56.55000 161.868
56.72000 141.667
56.89000 127.495
57.06000 127.687
57.23000 123.140
57.40000 119.705
57.57000 102.166
57.74000 126.733
57.91000 116.113
58.08000 122.985
58.25000 120.696
58.42000 126.682
58.59000 115.794
58.76000 115.653
58.93000 122.753
59.10000 114.146
59.27000 112.444
59.44000 108.067
59.61000 118.170
59.78000 116.483
59.95000 119.018
60.12000 124.429
60.29000 119.179
60.46000 118.254
60.63000 105.163
60.80000 132.149
60.97000 117.710
61.14000 117.409
61.31000 119.043
61.48000 132.903
61.65000 295.235
61.82000 189.242
61.99000 124.983
62.16000 124.810
62.33000 118.618
62.50000 135.875
62.67000 127.982
62.84000 131.238
63.01000 127.793
63.18000 125.792
63.35000 124.928
63.52000 142.676
63.69000 126.789
63.86000 143.932
64.03000 133.475
64.20000 149.804
64.37000 149.085
64.54000 162.820
64.71000 171.506
64.88000 175.209
65.05000 205.831
65.22000 238.629
65.39000 290.456
65.56000 376.069
65.73000 1170.492
65.90000 2074.469
66.07000 509.726
66.24000 425.496
66.41000 631.533
66.58000 418.171
66.75000 358.980
66.92000 378.540
67.09000 385.834
67.26000 399.511
67.43000 405.716
67.60000 440.113
67.77000 488.122
67.94000 498.205
68.11000 521.040
68.28000 562.604
68.45000 664.278
68.62000 939.152
68.79000 1713.260
68.96000 11537.494
69.13000 47829.160
69.30000 25482.949
69.47000 5791.598
69.64000 923.819
69.81000 615.807
69.98000 517.655
70.00000 514.153