Folder: Master-Thesis/XRD/XRD/07-10-2025 Dep 6/XY Data (part 8)

File: BTO_Mapping_Theta2Theta_07-10-2025_001_55_13-383_-14-863.xy
20.00000 478.870
20.17000 448.644
20.34000 465.056
20.51000 466.115
20.68000 453.587
20.85000 481.037
21.02000 453.498
21.19000 458.243
21.36000 465.565
21.53000 452.775
21.70000 467.141
21.87000 479.722
22.04000 475.539
22.21000 483.571
22.38000 472.818
22.55000 444.785
22.72000 453.320
22.89000 455.743
23.06000 426.333
23.23000 439.968
23.40000 434.474
23.57000 436.269
23.74000 466.425
23.91000 508.052
24.08000 523.675
24.25000 452.023
24.42000 423.004
24.59000 397.277
24.76000 399.852
24.93000 412.395
25.10000 401.676
25.27000 397.377
25.44000 390.472
25.61000 392.740
25.78000 384.940
25.95000 397.368
26.12000 404.198
26.29000 396.676
26.46000 385.620
26.63000 387.898
26.80000 382.667
26.97000 390.394
27.14000 372.366
27.31000 382.586
27.48000 369.747
27.65000 357.066
27.82000 388.069
27.99000 369.593
28.16000 374.026
28.33000 352.821
28.50000 355.369
28.67000 345.201
28.84000 353.566
29.01000 358.953
29.18000 353.713
29.35000 352.565
29.52000 356.394
29.69000 350.397
29.86000 372.302
30.03000 377.846
30.20000 392.965
30.37000 369.581
30.54000 359.987
30.71000 387.981
30.88000 420.000
31.05000 484.662
31.22000 845.109
31.39000 1184.506
31.56000 824.955
31.73000 488.775
31.90000 382.482
32.07000 363.284
32.24000 345.876
32.41000 333.412
32.58000 316.612
32.75000 329.519
32.92000 497.700
33.09000 417.680
33.26000 296.244
33.43000 294.946
33.60000 280.565
33.77000 304.084
33.94000 307.917
34.11000 296.450
34.28000 311.507
34.45000 318.150
34.62000 306.618
34.79000 288.981
34.96000 270.507
35.13000 278.223
35.30000 256.521
35.47000 254.920
35.64000 255.483
35.81000 252.921
35.98000 264.540
36.15000 250.741
36.32000 265.596
36.49000 255.874
36.66000 252.664
36.83000 266.554
37.00000 274.021
37.17000 272.403
37.34000 260.001
37.51000 258.287
37.68000 249.813
37.85000 246.676
38.02000 245.930
38.19000 264.974
38.36000 297.012
38.53000 501.007
38.70000 816.522
38.87000 574.501
39.04000 308.484
39.21000 245.709
39.38000 244.001
39.55000 230.642
39.72000 243.927
39.89000 226.049
40.06000 232.723
40.23000 217.885
40.40000 212.285
40.57000 222.165
40.74000 223.359
40.91000 213.289
41.08000 200.768
41.25000 204.759
41.42000 192.647
41.59000 200.914
41.76000 202.695
41.93000 207.531
42.10000 211.207
42.27000 222.859
42.44000 209.537
42.61000 208.615
42.78000 208.146
42.95000 198.905
43.12000 210.466
43.29000 196.179
43.46000 192.869
43.63000 192.406
43.80000 188.405
43.97000 171.740
44.14000 197.179
44.31000 200.234
44.48000 212.031
44.65000 211.718
44.82000 224.716
44.99000 225.872
45.16000 223.208
45.33000 213.103
45.50000 207.563
45.67000 196.604
45.84000 178.610
46.01000 178.981
46.18000 181.147
46.35000 170.961
46.52000 172.277
46.69000 168.786
46.86000 174.833
47.03000 158.465
47.20000 150.832
47.37000 153.319
47.54000 165.107
47.71000 157.998
47.88000 162.972
48.05000 156.489
48.22000 155.233
48.39000 148.245
48.56000 152.387
48.73000 155.574
48.90000 160.528
49.07000 147.737
49.24000 149.836
49.41000 153.163
49.58000 152.021
49.75000 165.317
49.92000 144.733
50.09000 160.960
50.26000 154.228
50.43000 157.052
50.60000 165.924
50.77000 160.999
50.94000 152.685
51.11000 145.431
51.28000 151.157
51.45000 139.956
51.62000 142.692
51.79000 141.658
51.96000 145.695
52.13000 135.051
52.30000 140.355
52.47000 137.636
52.64000 136.702
52.81000 133.832
52.98000 140.931
53.15000 140.813
53.32000 154.156
53.49000 149.554
53.66000 151.238
53.83000 140.261
54.00000 139.615
54.17000 143.387
54.34000 127.638
54.51000 146.611
54.68000 144.889
54.85000 137.538
55.02000 148.407
55.19000 154.476
55.36000 160.130
55.53000 203.911
55.70000 275.128
55.87000 401.197
56.04000 424.461
56.21000 295.379
56.38000 192.377
56.55000 153.331
56.72000 140.359
56.89000 131.584
57.06000 129.666
57.23000 125.539
57.40000 123.762
57.57000 122.690
57.74000 123.030
57.91000 123.340
58.08000 120.402
58.25000 127.527
58.42000 124.409
58.59000 120.056
58.76000 117.436
58.93000 118.984
59.10000 116.142
59.27000 122.849
59.44000 112.681
59.61000 120.295
59.78000 113.261
59.95000 118.494
60.12000 120.000
60.29000 117.280
60.46000 122.269
60.63000 117.332
60.80000 126.770
60.97000 118.146
61.14000 128.101
61.31000 127.051
61.48000 122.782
61.65000 285.504
61.82000 194.328
61.99000 124.278
62.16000 141.487
62.33000 123.270
62.50000 136.857
62.67000 135.401
62.84000 130.616
63.01000 129.308
63.18000 126.736
63.35000 142.948
63.52000 141.200
63.69000 143.023
63.86000 143.916
64.03000 139.741
64.20000 144.894
64.37000 153.912
64.54000 155.168
64.71000 156.373
64.88000 177.124
65.05000 197.030
65.22000 216.083
65.39000 256.151
65.56000 308.850
65.73000 994.064
65.90000 1937.991
66.07000 504.645
66.24000 399.677
66.41000 642.246
66.58000 405.099
66.75000 353.076
66.92000 356.925
67.09000 375.838
67.26000 390.358
67.43000 414.051
67.60000 435.988
67.77000 457.942
67.94000 486.072
68.11000 503.413
68.28000 571.184
68.45000 633.412
68.62000 873.915
68.79000 1525.201
68.96000 8708.280
69.13000 43369.488
69.30000 23923.684
69.47000 5998.256
69.64000 908.087
69.81000 613.050
69.98000 491.079
70.00000 480.675

File: BTO_Mapping_Theta2Theta_07-10-2025_001_56_20-074_-22-294.xy
20.00000 460.298
20.17000 477.190
20.34000 465.869
20.51000 457.454
20.68000 463.211
20.85000 463.191
21.02000 488.767
21.19000 455.534
21.36000 460.248
21.53000 476.321
21.70000 480.586
21.87000 490.095
22.04000 497.484
22.21000 503.087
22.38000 476.086
22.55000 452.466
22.72000 451.515
22.89000 427.455
23.06000 450.889
23.23000 443.715
23.40000 439.464
23.57000 440.895
23.74000 474.348
23.91000 517.933
24.08000 523.605
24.25000 452.163
24.42000 432.280
24.59000 420.732
24.76000 421.570
24.93000 406.751
25.10000 415.383
25.27000 400.139
25.44000 394.036
25.61000 390.365
25.78000 390.955
25.95000 371.324
26.12000 382.620
26.29000 388.480
26.46000 384.918
26.63000 387.591
26.80000 385.243
26.97000 367.569
27.14000 387.690
27.31000 368.232
27.48000 376.688
27.65000 376.352
27.82000 371.455
27.99000 362.233
28.16000 370.746
28.33000 359.748
28.50000 371.041
28.67000 370.056
28.84000 360.093
29.01000 363.370
29.18000 359.632
29.35000 362.737
29.52000 349.409
29.69000 334.840
29.86000 360.119
30.03000 372.164
30.20000 382.078
30.37000 385.329
30.54000 379.292
30.71000 383.175
30.88000 413.475
31.05000 500.729
31.22000 788.733
31.39000 1090.196
31.56000 783.880
31.73000 471.698
31.90000 390.273
32.07000 376.403
32.24000 348.631
32.41000 339.665
32.58000 320.756
32.75000 324.609
32.92000 500.831
33.09000 428.629
33.26000 297.708
33.43000 313.801
33.60000 297.822
33.77000 300.096
33.94000 299.309
34.11000 320.720
34.28000 317.494
34.45000 305.740
34.62000 314.497
34.79000 305.012
34.96000 282.617
35.13000 276.416
35.30000 283.101
35.47000 267.767
35.64000 254.716
35.81000 266.712
35.98000 260.543
36.15000 257.807
36.32000 245.756
36.49000 232.189
36.66000 250.519
36.83000 247.241
37.00000 262.148
37.17000 249.761
37.34000 254.964
37.51000 259.263
37.68000 253.293
37.85000 244.341
38.02000 264.247
38.19000 259.877
38.36000 299.957
38.53000 480.933
38.70000 756.898
38.87000 562.501
39.04000 283.385
39.21000 247.296
39.38000 251.211
39.55000 234.853
39.72000 237.656
39.89000 233.133
40.06000 218.962
40.23000 232.342
40.40000 221.103
40.57000 228.513
40.74000 210.408
40.91000 214.357
41.08000 202.628
41.25000 193.401
41.42000 203.989
41.59000 203.171
41.76000 208.998
41.93000 223.749
42.10000 206.992
42.27000 219.199
42.44000 195.707
42.61000 193.655
42.78000 203.703
42.95000 189.524
43.12000 201.783
43.29000 198.460
43.46000 196.518
43.63000 188.276
43.80000 185.854
43.97000 190.853
44.14000 192.984
44.31000 204.518
44.48000 198.931
44.65000 215.304
44.82000 215.813
44.99000 227.686
45.16000 227.917
45.33000 208.845
45.50000 218.025
45.67000 198.984
45.84000 182.008
46.01000 172.408
46.18000 172.707
46.35000 178.182
46.52000 181.836
46.69000 176.939
46.86000 171.474
47.03000 178.713
47.20000 159.337
47.37000 164.147
47.54000 165.156
47.71000 167.159
47.88000 164.349
48.05000 157.249
48.22000 160.981
48.39000 167.951
48.56000 153.915
48.73000 155.962
48.90000 150.206
49.07000 154.631
49.24000 163.674
49.41000 156.941
49.58000 149.205
49.75000 156.255
49.92000 162.579
50.09000 153.109
50.26000 157.894
50.43000 163.478
50.60000 164.775
50.77000 169.825
50.94000 156.453
51.11000 151.900
51.28000 164.837
51.45000 138.076
51.62000 136.598
51.79000 138.614
51.96000 134.300
52.13000 140.620
52.30000 143.363
52.47000 131.870
52.64000 142.111
52.81000 146.813
52.98000 146.853
53.15000 142.519
53.32000 140.927
53.49000 150.976
53.66000 144.319
53.83000 134.865
54.00000 142.804
54.17000 139.829
54.34000 145.191
54.51000 140.241
54.68000 140.182
54.85000 134.146
55.02000 148.877
55.19000 140.226
55.36000 162.736
55.53000 200.989
55.70000 256.071
55.87000 358.054
56.04000 358.469
56.21000 269.473
56.38000 187.379
56.55000 150.592
56.72000 144.341
56.89000 132.655
57.06000 137.039
57.23000 142.521
57.40000 115.508
57.57000 122.502
57.74000 125.078
57.91000 121.599
58.08000 123.319
58.25000 127.026
58.42000 126.891
58.59000 113.240
58.76000 113.604
58.93000 112.694
59.10000 117.857
59.27000 116.070
59.44000 121.132
59.61000 121.456
59.78000 113.568
59.95000 122.271
60.12000 107.917
60.29000 118.110
60.46000 114.187
60.63000 112.429
60.80000 123.672
60.97000 119.851
61.14000 128.488
61.31000 126.308
61.48000 135.539
61.65000 273.718
61.82000 198.826
61.99000 145.097
62.16000 120.312
62.33000 121.658
62.50000 119.117
62.67000 134.024
62.84000 129.803
63.01000 134.396
63.18000 137.792
63.35000 135.845
63.52000 123.942
63.69000 139.618
63.86000 133.315
64.03000 140.683
64.20000 149.957
64.37000 144.495
64.54000 164.592
64.71000 165.427
64.88000 172.999
65.05000 201.104
65.22000 225.812
65.39000 252.155
65.56000 301.341
65.73000 965.572
65.90000 1941.850
66.07000 507.270
66.24000 381.605
66.41000 644.035
66.58000 412.151
66.75000 357.673
66.92000 366.769
67.09000 370.614
67.26000 378.802
67.43000 409.447
67.60000 447.583
67.77000 460.100
67.94000 500.134
68.11000 533.818
68.28000 571.225
68.45000 631.407
68.62000 897.628
68.79000 1578.484
68.96000 8522.268
69.13000 43847.414
69.30000 24494.996
69.47000 6292.691
69.64000 899.929
69.81000 641.822
69.98000 505.476
70.00000 500.026

File: BTO_Mapping_Theta2Theta_07-10-2025_001_57_26-765_-29-726.xy
20.00000 489.692
20.17000 466.332
20.34000 466.958
20.51000 456.289
20.68000 475.325
20.85000 457.626
21.02000 461.809
21.19000 482.178
21.36000 454.424
21.53000 453.154
21.70000 461.668
21.87000 494.303
22.04000 499.428
22.21000 504.049
22.38000 465.711
22.55000 453.066
22.72000 474.069
22.89000 422.085
23.06000 451.569
23.23000 423.047
23.40000 444.298
23.57000 457.013
23.74000 472.806
23.91000 514.298
24.08000 502.990
24.25000 458.737
24.42000 423.081
24.59000 418.797
24.76000 404.233
24.93000 399.100
25.10000 406.783
25.27000 407.972
25.44000 413.808
25.61000 395.815
25.78000 416.737
25.95000 399.467
26.12000 388.255
26.29000 399.638
26.46000 379.887
26.63000 396.418
26.80000 381.032
26.97000 366.879
27.14000 377.080
27.31000 368.243
27.48000 375.304
27.65000 378.331
27.82000 359.059
27.99000 367.844
28.16000 372.261
28.33000 351.592
28.50000 346.924
28.67000 354.381
28.84000 340.462
29.01000 355.514
29.18000 360.354
29.35000 350.057
29.52000 341.124
29.69000 367.223
29.86000 368.472
30.03000 379.078
30.20000 365.661
30.37000 385.618
30.54000 365.426
30.71000 362.126
30.88000 401.163
31.05000 487.651
31.22000 790.110
31.39000 1069.543
31.56000 761.481
31.73000 482.731
31.90000 406.818
32.07000 367.791
32.24000 363.241
32.41000 346.408
32.58000 318.525
32.75000 319.380
32.92000 509.278
33.09000 449.359
33.26000 286.195
33.43000 289.966
33.60000 299.566
33.77000 288.012
33.94000 301.547
34.11000 296.621
34.28000 312.906
34.45000 317.808
34.62000 294.117
34.79000 289.775
34.96000 265.314
35.13000 277.431
35.30000 262.196
35.47000 262.565
35.64000 259.776
35.81000 253.611
35.98000 253.838
36.15000 251.861
36.32000 241.518
36.49000 243.067
36.66000 268.541
36.83000 265.136
37.00000 258.008
37.17000 251.666
37.34000 253.374
37.51000 244.988
37.68000 256.248
37.85000 260.979
38.02000 252.168
38.19000 266.487
38.36000 292.543
38.53000 475.067
38.70000 688.483
38.87000 490.058
39.04000 292.373
39.21000 247.034
39.38000 228.379
39.55000 221.383
39.72000 237.184
39.89000 226.466
40.06000 217.889
40.23000 215.047
40.40000 214.002
40.57000 213.187
40.74000 204.859
40.91000 199.625
41.08000 207.778
41.25000 213.392
41.42000 200.496
41.59000 210.102
41.76000 197.339
41.93000 215.093
42.10000 221.124
42.27000 215.621
42.44000 221.881
42.61000 210.575
42.78000 209.180
42.95000 209.528
43.12000 204.012
43.29000 197.273
43.46000 190.813
43.63000 189.102
43.80000 179.223
43.97000 195.982
44.14000 191.197
44.31000 189.430
44.48000 199.646
44.65000 217.501
44.82000 215.083
44.99000 223.829
45.16000 223.931
45.33000 215.314
45.50000 211.352
45.67000 197.798
45.84000 185.432
46.01000 176.373
46.18000 177.388
46.35000 179.360
46.52000 177.596
46.69000 173.145
46.86000 171.411
47.03000 172.006
47.20000 167.825
47.37000 163.680
47.54000 159.729
47.71000 157.369
47.88000 164.262
48.05000 161.266
48.22000 159.154
48.39000 162.814
48.56000 156.407
48.73000 159.098
48.90000 159.641
49.07000 151.908
49.24000 157.394
49.41000 156.935
49.58000 153.249
49.75000 154.690
49.92000 146.596
50.09000 161.583
50.26000 156.531
50.43000 155.333
50.60000 172.412
50.77000 162.951
50.94000 152.752
51.11000 152.222
51.28000 145.681
51.45000 159.422
51.62000 138.936
51.79000 137.511
51.96000 143.372
52.13000 150.031
52.30000 146.229
52.47000 137.465
52.64000 136.674
52.81000 135.501
52.98000 148.094
53.15000 149.231
53.32000 147.857
53.49000 151.950
53.66000 148.632
53.83000 149.500
54.00000 137.877
54.17000 137.816
54.34000 148.974
54.51000 138.704
54.68000 139.021
54.85000 143.711
55.02000 145.832
55.19000 159.729
55.36000 158.826
55.53000 180.829
55.70000 258.829
55.87000 319.917
56.04000 307.255
56.21000 229.937
56.38000 175.427
56.55000 150.630
56.72000 146.681
56.89000 129.876
57.06000 130.411
57.23000 133.760
57.40000 118.674
57.57000 133.080
57.74000 125.568
57.91000 121.654
58.08000 127.135
58.25000 123.246
58.42000 125.763
58.59000 111.700
58.76000 122.103
58.93000 131.159
59.10000 120.075
59.27000 123.408
59.44000 117.681
59.61000 118.415
59.78000 113.587
59.95000 113.425
60.12000 117.545
60.29000 115.004
60.46000 114.702
60.63000 120.566
60.80000 123.119
60.97000 114.523
61.14000 122.197
61.31000 130.128
61.48000 133.434
61.65000 283.539
61.82000 196.389
61.99000 125.894
62.16000 129.063
62.33000 131.301
62.50000 121.948
62.67000 127.794
62.84000 130.433
63.01000 130.540
63.18000 134.219
63.35000 140.521
63.52000 142.544
63.69000 148.559
63.86000 132.146
64.03000 150.711
64.20000 159.549
64.37000 156.856
64.54000 164.353
64.71000 171.176
64.88000 179.275
65.05000 183.450
65.22000 228.556
65.39000 243.316
65.56000 318.733
65.73000 976.699
65.90000 1960.975
66.07000 526.285
66.24000 391.621
66.41000 604.597
66.58000 413.747
66.75000 360.505
66.92000 352.517
67.09000 390.470
67.26000 404.295
67.43000 422.982
67.60000 443.064
67.77000 463.065
67.94000 479.445
68.11000 537.406
68.28000 562.661
68.45000 638.654
68.62000 899.635
68.79000 1592.635
68.96000 8381.368
69.13000 44073.430
69.30000 24655.182
69.47000 6384.487
69.64000 927.119
69.81000 623.490
69.98000 525.344
70.00000 501.668

File: BTO_Mapping_Theta2Theta_07-10-2025_001_58_9-135_-4-067.xy
20.00000 490.751
20.17000 462.599
20.34000 474.674
20.51000 486.818
20.68000 465.078
20.85000 480.005
21.02000 473.746
21.19000 463.414
21.36000 462.482
21.53000 472.927
21.70000 467.151
21.87000 475.714
22.04000 522.173
22.21000 506.116
22.38000 454.837
22.55000 434.281
22.72000 439.934
22.89000 417.649
23.06000 430.006
23.23000 432.266
23.40000 438.058
23.57000 432.564
23.74000 459.547
23.91000 510.499
24.08000 490.726
24.25000 453.617
24.42000 418.430
24.59000 412.954
24.76000 409.543
24.93000 429.747
25.10000 402.643
25.27000 401.977
25.44000 378.134
25.61000 392.091
25.78000 399.563
25.95000 398.362
26.12000 382.501
26.29000 369.912
26.46000 381.803
26.63000 382.067
26.80000 373.283
26.97000 376.646
27.14000 372.695
27.31000 374.011
27.48000 388.527
27.65000 365.063
27.82000 375.250
27.99000 366.598
28.16000 369.752
28.33000 366.855
28.50000 364.001
28.67000 347.069
28.84000 346.138
29.01000 338.833
29.18000 335.775
29.35000 357.133
29.52000 357.063
29.69000 348.304
29.86000 358.028
30.03000 379.991
30.20000 368.173
30.37000 347.037
30.54000 385.550
30.71000 390.836
30.88000 388.365
31.05000 506.377
31.22000 860.201
31.39000 1181.715
31.56000 845.001
31.73000 484.654
31.90000 381.887
32.07000 354.236
32.24000 349.777
32.41000 325.809
32.58000 325.545
32.75000 312.538
32.92000 496.001
33.09000 420.129
33.26000 306.481
33.43000 310.974
33.60000 302.183
33.77000 293.623
33.94000 300.294
34.11000 306.643
34.28000 325.884
34.45000 343.127
34.62000 311.323
34.79000 290.626
34.96000 269.721
35.13000 279.649
35.30000 260.656
35.47000 263.295
35.64000 267.172
35.81000 266.060
35.98000 269.447
36.15000 252.474
36.32000 250.139
36.49000 254.067
36.66000 257.106
36.83000 272.480
37.00000 269.100
37.17000 265.155
37.34000 253.764
37.51000 257.313
37.68000 247.523
37.85000 245.638
38.02000 257.837
38.19000 249.169
38.36000 305.862
38.53000 484.174
38.70000 848.438
38.87000 628.359
39.04000 309.694
39.21000 248.802
39.38000 248.475
39.55000 225.038
39.72000 230.767
39.89000 204.697
40.06000 222.683
40.23000 231.556
40.40000 211.409
40.57000 204.734
40.74000 207.459
40.91000 205.018
41.08000 207.567
41.25000 196.921
41.42000 213.100
41.59000 205.789
41.76000 208.502
41.93000 204.296
42.10000 203.115
42.27000 221.069
42.44000 210.815
42.61000 205.907
42.78000 203.888
42.95000 219.822
43.12000 202.560
43.29000 198.332
43.46000 181.029
43.63000 183.336
43.80000 183.186
43.97000 169.765
44.14000 184.876
44.31000 200.229
44.48000 202.010
44.65000 222.104
44.82000 214.547
44.99000 235.862
45.16000 235.419
45.33000 204.479
45.50000 212.218
45.67000 190.341
45.84000 179.845
46.01000 167.938
46.18000 182.008
46.35000 170.116
46.52000 173.243
46.69000 181.003
46.86000 171.229
47.03000 164.318
47.20000 168.522
47.37000 158.998
47.54000 169.939
47.71000 158.018
47.88000 151.702
48.05000 150.124
48.22000 156.954
48.39000 164.604
48.56000 156.122
48.73000 151.591
48.90000 146.365
49.07000 151.569
49.24000 156.321
49.41000 152.196
49.58000 152.145
49.75000 142.617
49.92000 160.406
50.09000 152.154
50.26000 155.851
50.43000 162.118
50.60000 163.173
50.77000 157.961
50.94000 149.944
51.11000 142.402
51.28000 144.775
51.45000 138.886
51.62000 132.374
51.79000 137.565
51.96000 138.641
52.13000 136.439
52.30000 139.062
52.47000 135.428
52.64000 133.540
52.81000 139.794
52.98000 149.872
53.15000 140.793
53.32000 149.685
53.49000 147.506
53.66000 144.511
53.83000 146.919
54.00000 138.449
54.17000 137.939
54.34000 143.104
54.51000 132.933
54.68000 135.041
54.85000 143.026
55.02000 141.427
55.19000 153.595
55.36000 160.582
55.53000 200.501
55.70000 293.041
55.87000 440.934
56.04000 437.142
56.21000 304.329
56.38000 189.510
56.55000 149.256
56.72000 146.169
56.89000 133.172
57.06000 119.584
57.23000 129.031
57.40000 129.237
57.57000 128.435
57.74000 122.176
57.91000 114.969
58.08000 129.128
58.25000 121.445
58.42000 123.812
58.59000 123.772
58.76000 130.617
58.93000 130.119
59.10000 114.935
59.27000 125.983
59.44000 113.477
59.61000 121.754
59.78000 115.534
59.95000 128.029
60.12000 110.939
60.29000 114.730
60.46000 114.820
60.63000 113.556
60.80000 119.030
60.97000 124.837
61.14000 125.180
61.31000 127.413
61.48000 143.140
61.65000 283.486
61.82000 195.473
61.99000 138.472
62.16000 128.384
62.33000 127.297
62.50000 137.208
62.67000 133.987
62.84000 120.699
63.01000 121.031
63.18000 140.255
63.35000 133.504
63.52000 141.245
63.69000 143.738
63.86000 149.085
64.03000 145.670
64.20000 153.647
64.37000 158.528
64.54000 149.851
64.71000 170.513
64.88000 170.181
65.05000 196.107
65.22000 209.383
65.39000 245.011
65.56000 327.381
65.73000 955.764
65.90000 1974.573
66.07000 503.724
66.24000 392.483
66.41000 631.526
66.58000 401.108
66.75000 345.346
66.92000 369.489
67.09000 360.899
67.26000 400.385
67.43000 409.094
67.60000 426.100
67.77000 454.461
67.94000 493.075
68.11000 533.657
68.28000 575.851
68.45000 650.919
68.62000 866.602
68.79000 1546.578
68.96000 8600.212
69.13000 43373.723
69.30000 23945.939
69.47000 5896.939
69.64000 880.978
69.81000 612.337
69.98000 503.990
70.00000 493.590

File: BTO_Mapping_Theta2Theta_07-10-2025_001_59_18-271_-8-135.xy
20.00000 464.882
20.17000 479.303
20.34000 448.079
20.51000 463.997
20.68000 474.901
20.85000 465.913
21.02000 462.503
21.19000 463.971
21.36000 479.099
21.53000 479.582
21.70000 473.379
21.87000 486.913
22.04000 512.104
22.21000 491.972
22.38000 466.862
22.55000 443.017
22.72000 449.954
22.89000 443.369
23.06000 461.780
23.23000 426.872
23.40000 437.466
23.57000 464.796
23.74000 464.827
23.91000 527.228
24.08000 500.962
24.25000 471.770
24.42000 431.129
24.59000 423.388
24.76000 430.544
24.93000 394.114
25.10000 406.103
25.27000 393.105
25.44000 397.002
25.61000 402.267
25.78000 378.444
25.95000 378.590
26.12000 380.421
26.29000 382.544
26.46000 383.183
26.63000 386.531
26.80000 374.195
26.97000 377.273
27.14000 365.707
27.31000 373.537
27.48000 372.667
27.65000 374.776
27.82000 374.853
27.99000 362.469
28.16000 367.112
28.33000 354.310
28.50000 361.064
28.67000 355.352
28.84000 345.657
29.01000 357.843
29.18000 353.629
29.35000 341.461
29.52000 354.998
29.69000 360.990
29.86000 367.211
30.03000 376.451
30.20000 369.379
30.37000 355.830
30.54000 379.085
30.71000 372.526
30.88000 398.561
31.05000 510.794
31.22000 806.279
31.39000 1072.762
31.56000 757.427
31.73000 473.214
31.90000 387.232
32.07000 355.404
32.24000 347.937
32.41000 330.590
32.58000 317.890
32.75000 318.795
32.92000 505.943
33.09000 428.742
33.26000 299.578
33.43000 282.131
33.60000 274.347
33.77000 304.516
33.94000 302.439
34.11000 314.886
34.28000 331.225
34.45000 310.290
34.62000 297.297
34.79000 302.571
34.96000 271.952
35.13000 283.847
35.30000 277.817
35.47000 257.469
35.64000 275.918
35.81000 263.912
35.98000 260.575
36.15000 262.101
36.32000 263.236
36.49000 257.817
36.66000 265.770
36.83000 264.842
37.00000 261.771
37.17000 256.881
37.34000 259.698
37.51000 249.084
37.68000 246.308
37.85000 252.364
38.02000 256.004
38.19000 254.263
38.36000 296.877
38.53000 472.520
38.70000 752.516
38.87000 534.230
39.04000 307.665
39.21000 250.047
39.38000 247.319
39.55000 224.429
39.72000 222.674
39.89000 226.359
40.06000 226.399
40.23000 231.827
40.40000 217.210
40.57000 218.633
40.74000 216.991
40.91000 206.779
41.08000 206.625
41.25000 201.075
41.42000 206.224
41.59000 205.220
41.76000 214.835
41.93000 211.422
42.10000 202.933
42.27000 219.704
42.44000 215.313
42.61000 203.383
42.78000 210.850
42.95000 203.269
43.12000 194.701
43.29000 195.417
43.46000 192.407
43.63000 206.040
43.80000 203.407
43.97000 204.584
44.14000 210.259
44.31000 201.643
44.48000 203.655
44.65000 222.183
44.82000 230.211
44.99000 226.776
45.16000 224.499
45.33000 217.623
45.50000 206.052
45.67000 197.235
45.84000 173.589
46.01000 173.495
46.18000 168.180
46.35000 174.291
46.52000 182.016
46.69000 175.523
46.86000 186.179
47.03000 161.275
47.20000 169.448
47.37000 162.836
47.54000 158.843
47.71000 155.924
47.88000 165.631
48.05000 161.546
48.22000 146.256
48.39000 169.148
48.56000 147.941
48.73000 164.020
48.90000 148.906
49.07000 156.852
49.24000 163.841
49.41000 151.992
49.58000 157.433
49.75000 156.284
49.92000 153.895
50.09000 161.923
50.26000 156.311
50.43000 151.356
50.60000 151.885
50.77000 164.109
50.94000 147.932
51.11000 149.643
51.28000 145.724
51.45000 146.170
51.62000 131.850
51.79000 149.170
51.96000 142.792
52.13000 135.844
52.30000 138.215
52.47000 136.460
52.64000 136.490
52.81000 137.772
52.98000 133.914
53.15000 148.439
53.32000 141.081
53.49000 150.317
53.66000 143.425
53.83000 141.240
54.00000 133.152
54.17000 139.960
54.34000 158.098
54.51000 136.577
54.68000 151.157
54.85000 134.937
55.02000 140.196
55.19000 153.862
55.36000 163.860
55.53000 186.581
55.70000 243.700
55.87000 353.954
56.04000 344.900
56.21000 269.158
56.38000 195.208
56.55000 151.549
56.72000 147.005
56.89000 125.153
57.06000 132.941
57.23000 128.026
57.40000 125.868
57.57000 134.642
57.74000 127.529
57.91000 119.714
58.08000 118.430
58.25000 123.599
58.42000 120.143
58.59000 123.078
58.76000 120.863
58.93000 109.905
59.10000 114.156
59.27000 125.012
59.44000 114.221
59.61000 114.136
59.78000 122.960
59.95000 109.436
60.12000 120.639
60.29000 114.663
60.46000 113.069
60.63000 114.397
60.80000 127.704
60.97000 119.944
61.14000 121.471
61.31000 124.612
61.48000 134.526
61.65000 288.563
61.82000 206.775
61.99000 137.241
62.16000 139.279
62.33000 125.476
62.50000 128.244
62.67000 138.242
62.84000 131.694
63.01000 133.076
63.18000 135.934
63.35000 125.894
63.52000 138.600
63.69000 152.270
63.86000 141.663
64.03000 151.515
64.20000 145.973
64.37000 153.091
64.54000 167.645
64.71000 164.427
64.88000 181.947
65.05000 187.103
65.22000 216.671
65.39000 248.543
65.56000 326.006
65.73000 974.656
65.90000 1958.645
66.07000 517.868
66.24000 405.119
66.41000 638.806
66.58000 429.231
66.75000 372.127
66.92000 364.174
67.09000 379.103
67.26000 402.176
67.43000 410.749
67.60000 439.239
67.77000 452.988
67.94000 470.859
68.11000 523.380
68.28000 569.498
68.45000 656.778
68.62000 890.194
68.79000 1566.258
68.96000 8619.861
69.13000 43771.309
69.30000 24540.883
69.47000 6063.082
69.64000 921.043
69.81000 617.242
69.98000 514.125
70.00000 503.492