Folder: Master-Thesis/XRD/XRD/07-10-2025 Dep 6/XY Data (part 5)

File: BTO_Mapping_Theta2Theta_07-10-2025_001_29_-32-361_23-511.xy
20.00000 471.967
20.17000 468.139
20.34000 469.270
20.51000 459.984
20.68000 471.548
20.85000 463.855
21.02000 461.225
21.19000 466.916
21.36000 454.050
21.53000 476.574
21.70000 460.739
21.87000 516.542
22.04000 584.948
22.21000 542.588
22.38000 503.910
22.55000 451.791
22.72000 428.494
22.89000 419.826
23.06000 438.773
23.23000 431.488
23.40000 442.228
23.57000 418.638
23.74000 433.743
23.91000 435.665
24.08000 449.079
24.25000 415.135
24.42000 395.292
24.59000 411.867
24.76000 396.473
24.93000 395.328
25.10000 397.448
25.27000 394.940
25.44000 401.361
25.61000 388.307
25.78000 394.004
25.95000 386.879
26.12000 380.259
26.29000 377.217
26.46000 379.164
26.63000 358.757
26.80000 366.321
26.97000 374.464
27.14000 380.866
27.31000 367.852
27.48000 374.767
27.65000 367.836
27.82000 357.745
27.99000 355.496
28.16000 363.157
28.33000 355.234
28.50000 335.055
28.67000 355.542
28.84000 369.446
29.01000 344.662
29.18000 339.324
29.35000 345.624
29.52000 335.045
29.69000 346.057
29.86000 377.962
30.03000 401.061
30.20000 383.038
30.37000 371.052
30.54000 364.640
30.71000 349.673
30.88000 402.240
31.05000 582.589
31.22000 1395.209
31.39000 1988.550
31.56000 1030.246
31.73000 470.286
31.90000 370.151
32.07000 335.657
32.24000 331.382
32.41000 319.583
32.58000 308.375
32.75000 324.397
32.92000 509.524
33.09000 408.251
33.26000 285.593
33.43000 291.957
33.60000 279.965
33.77000 277.124
33.94000 302.522
34.11000 301.702
34.28000 310.272
34.45000 292.137
34.62000 286.399
34.79000 274.980
34.96000 270.385
35.13000 271.028
35.30000 265.680
35.47000 265.274
35.64000 260.823
35.81000 262.774
35.98000 255.503
36.15000 250.514
36.32000 263.193
36.49000 243.986
36.66000 256.117
36.83000 270.894
37.00000 264.009
37.17000 269.552
37.34000 258.230
37.51000 239.468
37.68000 254.582
37.85000 243.358
38.02000 249.597
38.19000 254.301
38.36000 334.495
38.53000 584.263
38.70000 877.184
38.87000 619.086
39.04000 303.364
39.21000 236.463
39.38000 218.954
39.55000 212.603
39.72000 228.696
39.89000 232.802
40.06000 222.801
40.23000 217.903
40.40000 226.028
40.57000 207.720
40.74000 213.231
40.91000 203.235
41.08000 210.788
41.25000 212.324
41.42000 216.939
41.59000 205.938
41.76000 193.504
41.93000 199.639
42.10000 205.815
42.27000 206.763
42.44000 199.964
42.61000 197.438
42.78000 197.197
42.95000 196.003
43.12000 195.607
43.29000 192.084
43.46000 189.408
43.63000 201.591
43.80000 184.617
43.97000 189.408
44.14000 183.674
44.31000 178.650
44.48000 197.286
44.65000 206.874
44.82000 245.277
44.99000 284.109
45.16000 275.331
45.33000 250.830
45.50000 223.065
45.67000 197.987
45.84000 193.234
46.01000 188.803
46.18000 185.301
46.35000 177.681
46.52000 169.563
46.69000 156.981
46.86000 173.421
47.03000 162.910
47.20000 161.590
47.37000 166.063
47.54000 154.355
47.71000 158.594
47.88000 152.378
48.05000 169.283
48.22000 149.774
48.39000 157.512
48.56000 155.123
48.73000 144.041
48.90000 144.765
49.07000 148.176
49.24000 141.885
49.41000 153.749
49.58000 152.444
49.75000 145.159
49.92000 150.033
50.09000 158.657
50.26000 152.559
50.43000 181.305
50.60000 198.234
50.77000 203.597
50.94000 163.327
51.11000 152.926
51.28000 139.581
51.45000 130.639
51.62000 144.240
51.79000 144.020
51.96000 145.819
52.13000 143.614
52.30000 128.698
52.47000 136.340
52.64000 132.501
52.81000 132.499
52.98000 150.240
53.15000 135.377
53.32000 142.824
53.49000 152.807
53.66000 142.103
53.83000 136.542
54.00000 133.490
54.17000 131.421
54.34000 147.585
54.51000 130.263
54.68000 141.692
54.85000 139.299
55.02000 138.624
55.19000 152.433
55.36000 167.255
55.53000 240.459
55.70000 415.568
55.87000 550.985
56.04000 480.892
56.21000 287.514
56.38000 201.974
56.55000 153.610
56.72000 139.014
56.89000 139.461
57.06000 123.784
57.23000 118.092
57.40000 130.188
57.57000 117.053
57.74000 118.720
57.91000 117.391
58.08000 127.904
58.25000 115.993
58.42000 115.830
58.59000 111.828
58.76000 114.840
58.93000 114.924
59.10000 107.926
59.27000 116.636
59.44000 114.783
59.61000 116.885
59.78000 115.778
59.95000 119.156
60.12000 120.962
60.29000 113.150
60.46000 111.824
60.63000 120.387
60.80000 124.574
60.97000 124.777
61.14000 123.250
61.31000 121.487
61.48000 127.474
61.65000 303.033
61.82000 210.750
61.99000 134.528
62.16000 124.861
62.33000 130.424
62.50000 120.494
62.67000 118.844
62.84000 118.084
63.01000 131.023
63.18000 125.254
63.35000 134.234
63.52000 135.400
63.69000 136.027
63.86000 143.030
64.03000 151.494
64.20000 156.315
64.37000 155.541
64.54000 165.992
64.71000 166.986
64.88000 195.596
65.05000 210.085
65.22000 259.761
65.39000 310.893
65.56000 370.327
65.73000 1265.419
65.90000 2095.104
66.07000 529.438
66.24000 415.961
66.41000 677.513
66.58000 425.995
66.75000 372.558
66.92000 373.256
67.09000 387.916
67.26000 401.158
67.43000 416.589
67.60000 461.167
67.77000 467.939
67.94000 492.400
68.11000 508.233
68.28000 581.640
68.45000 674.528
68.62000 959.568
68.79000 1813.267
68.96000 12818.735
69.13000 49491.551
69.30000 25827.844
69.47000 5618.466
69.64000 933.287
69.81000 645.879
69.98000 509.058
70.00000 493.630

File: BTO_Mapping_Theta2Theta_07-10-2025_001_32_-29-344_6-237.xy
20.00000 479.080
20.17000 480.706
20.34000 460.579
20.51000 471.201
20.68000 472.047
20.85000 444.126
21.02000 471.684
21.19000 465.888
21.36000 471.139
21.53000 445.256
21.70000 511.991
21.87000 571.711
22.04000 657.440
22.21000 569.723
22.38000 499.865
22.55000 464.405
22.72000 432.830
22.89000 445.067
23.06000 423.552
23.23000 415.782
23.40000 417.471
23.57000 429.589
23.74000 424.322
23.91000 426.823
24.08000 420.126
24.25000 427.341
24.42000 417.089
24.59000 409.279
24.76000 409.650
24.93000 384.027
25.10000 404.098
25.27000 406.750
25.44000 394.331
25.61000 395.978
25.78000 387.120
25.95000 375.906
26.12000 397.319
26.29000 374.601
26.46000 372.604
26.63000 373.999
26.80000 366.416
26.97000 381.706
27.14000 376.107
27.31000 375.302
27.48000 362.321
27.65000 361.174
27.82000 370.319
27.99000 355.381
28.16000 352.671
28.33000 367.081
28.50000 351.042
28.67000 362.786
28.84000 374.009
29.01000 325.323
29.18000 333.595
29.35000 355.792
29.52000 353.360
29.69000 369.815
29.86000 398.903
30.03000 437.290
30.20000 415.547
30.37000 402.732
30.54000 378.445
30.71000 402.388
30.88000 432.081
31.05000 735.920
31.22000 1984.316
31.39000 2713.026
31.56000 1284.366
31.73000 514.463
31.90000 367.956
32.07000 335.873
32.24000 314.583
32.41000 326.922
32.58000 306.170
32.75000 328.666
32.92000 531.370
33.09000 424.186
33.26000 287.076
33.43000 288.706
33.60000 287.219
33.77000 303.299
33.94000 292.078
34.11000 280.929
34.28000 284.305
34.45000 278.561
34.62000 283.789
34.79000 293.219
34.96000 255.921
35.13000 265.268
35.30000 273.767
35.47000 254.744
35.64000 260.328
35.81000 249.639
35.98000 264.347
36.15000 248.773
36.32000 255.441
36.49000 249.494
36.66000 274.253
36.83000 263.677
37.00000 278.366
37.17000 253.253
37.34000 259.455
37.51000 244.712
37.68000 239.003
37.85000 245.557
38.02000 241.315
38.19000 270.145
38.36000 313.061
38.53000 516.866
38.70000 663.419
38.87000 463.210
39.04000 288.081
39.21000 247.399
39.38000 251.368
39.55000 233.582
39.72000 213.846
39.89000 222.530
40.06000 218.139
40.23000 226.544
40.40000 217.990
40.57000 212.602
40.74000 215.571
40.91000 213.544
41.08000 205.044
41.25000 214.006
41.42000 201.659
41.59000 205.364
41.76000 203.969
41.93000 198.460
42.10000 198.716
42.27000 201.016
42.44000 193.339
42.61000 197.335
42.78000 204.104
42.95000 201.265
43.12000 198.690
43.29000 200.298
43.46000 189.956
43.63000 186.530
43.80000 195.765
43.97000 190.405
44.14000 194.229
44.31000 194.119
44.48000 210.906
44.65000 224.367
44.82000 294.549
44.99000 345.266
45.16000 325.683
45.33000 262.824
45.50000 246.850
45.67000 207.246
45.84000 192.654
46.01000 188.204
46.18000 176.298
46.35000 179.953
46.52000 170.446
46.69000 179.151
46.86000 168.770
47.03000 170.112
47.20000 158.308
47.37000 160.987
47.54000 163.706
47.71000 158.242
47.88000 171.884
48.05000 168.031
48.22000 167.848
48.39000 138.589
48.56000 166.061
48.73000 164.001
48.90000 152.414
49.07000 146.276
49.24000 157.085
49.41000 143.220
49.58000 157.809
49.75000 149.617
49.92000 147.861
50.09000 147.453
50.26000 171.844
50.43000 190.793
50.60000 220.455
50.77000 203.912
50.94000 185.046
51.11000 160.027
51.28000 157.940
51.45000 154.681
51.62000 135.622
51.79000 147.761
51.96000 139.841
52.13000 142.993
52.30000 138.863
52.47000 134.601
52.64000 135.551
52.81000 134.874
52.98000 154.244
53.15000 145.695
53.32000 157.012
53.49000 148.289
53.66000 148.252
53.83000 138.588
54.00000 131.600
54.17000 137.939
54.34000 126.606
54.51000 134.879
54.68000 142.419
54.85000 144.039
55.02000 142.002
55.19000 149.606
55.36000 171.657
55.53000 270.790
55.70000 451.710
55.87000 521.154
56.04000 431.528
56.21000 258.751
56.38000 194.724
56.55000 158.249
56.72000 136.664
56.89000 125.844
57.06000 131.884
57.23000 118.187
57.40000 109.416
57.57000 115.302
57.74000 124.892
57.91000 128.087
58.08000 112.280
58.25000 120.184
58.42000 116.819
58.59000 125.206
58.76000 111.768
58.93000 110.557
59.10000 109.272
59.27000 114.011
59.44000 122.546
59.61000 116.459
59.78000 128.722
59.95000 120.786
60.12000 119.653
60.29000 115.515
60.46000 112.330
60.63000 113.978
60.80000 124.580
60.97000 126.433
61.14000 117.913
61.31000 127.596
61.48000 144.001
61.65000 310.719
61.82000 206.527
61.99000 130.184
62.16000 126.396
62.33000 122.905
62.50000 116.354
62.67000 129.842
62.84000 135.246
63.01000 135.940
63.18000 138.315
63.35000 133.633
63.52000 126.969
63.69000 137.800
63.86000 148.054
64.03000 144.732
64.20000 144.011
64.37000 159.437
64.54000 159.269
64.71000 176.027
64.88000 196.969
65.05000 227.194
65.22000 289.749
65.39000 345.198
65.56000 438.013
65.73000 1348.977
65.90000 2285.843
66.07000 565.510
66.24000 435.193
66.41000 702.560
66.58000 439.102
66.75000 373.756
66.92000 387.516
67.09000 412.515
67.26000 411.103
67.43000 441.584
67.60000 458.309
67.77000 489.859
67.94000 540.542
68.11000 568.271
68.28000 621.911
68.45000 689.639
68.62000 1018.023
68.79000 1923.991
68.96000 13507.661
69.13000 53781.086
69.30000 28340.340
69.47000 6449.865
69.64000 988.049
69.81000 633.305
69.98000 517.103
70.00000 518.086

File: BTO_Mapping_Theta2Theta_07-10-2025_001_33_-39-126_8-316.xy
20.00000 481.341
20.17000 471.794
20.34000 473.797
20.51000 461.038
20.68000 467.519
20.85000 475.822
21.02000 459.971
21.19000 465.010
21.36000 484.242
21.53000 474.718
21.70000 534.739
21.87000 665.441
22.04000 787.791
22.21000 612.589
22.38000 506.794
22.55000 443.488
22.72000 429.297
22.89000 422.951
23.06000 437.990
23.23000 426.919
23.40000 420.680
23.57000 434.566
23.74000 416.095
23.91000 429.684
24.08000 414.606
24.25000 411.233
24.42000 397.286
24.59000 387.638
24.76000 401.314
24.93000 404.990
25.10000 392.010
25.27000 382.456
25.44000 401.519
25.61000 379.885
25.78000 408.356
25.95000 368.759
26.12000 377.404
26.29000 372.183
26.46000 380.918
26.63000 383.499
26.80000 377.051
26.97000 378.414
27.14000 363.202
27.31000 370.198
27.48000 368.905
27.65000 382.329
27.82000 353.637
27.99000 358.850
28.16000 369.011
28.33000 368.737
28.50000 362.295
28.67000 352.457
28.84000 358.319
29.01000 355.945
29.18000 352.092
29.35000 359.663
29.52000 343.091
29.69000 368.509
29.86000 432.613
30.03000 470.840
30.20000 422.858
30.37000 378.925
30.54000 395.637
30.71000 398.365
30.88000 477.089
31.05000 866.740
31.22000 2385.148
31.39000 3031.684
31.56000 1436.655
31.73000 540.456
31.90000 377.865
32.07000 342.464
32.24000 327.655
32.41000 326.449
32.58000 311.971
32.75000 321.946
32.92000 566.618
33.09000 447.146
33.26000 293.120
33.43000 305.043
33.60000 289.333
33.77000 289.925
33.94000 274.223
34.11000 279.455
34.28000 286.481
34.45000 279.381
34.62000 278.480
34.79000 281.134
34.96000 271.186
35.13000 262.763
35.30000 279.868
35.47000 252.348
35.64000 265.068
35.81000 276.094
35.98000 268.597
36.15000 250.573
36.32000 263.583
36.49000 246.083
36.66000 253.213
36.83000 251.636
37.00000 274.725
37.17000 255.736
37.34000 242.462
37.51000 245.905
37.68000 233.285
37.85000 245.997
38.02000 239.324
38.19000 259.233
38.36000 307.917
38.53000 433.885
38.70000 507.649
38.87000 388.667
39.04000 257.376
39.21000 233.565
39.38000 221.276
39.55000 232.153
39.72000 210.113
39.89000 219.369
40.06000 223.828
40.23000 215.409
40.40000 214.112
40.57000 209.454
40.74000 219.134
40.91000 203.083
41.08000 196.714
41.25000 201.864
41.42000 193.742
41.59000 208.359
41.76000 199.015
41.93000 204.903
42.10000 193.765
42.27000 200.477
42.44000 208.125
42.61000 202.017
42.78000 199.014
42.95000 200.765
43.12000 206.316
43.29000 200.486
43.46000 197.125
43.63000 198.401
43.80000 189.022
43.97000 190.132
44.14000 189.077
44.31000 211.592
44.48000 223.779
44.65000 278.779
44.82000 410.195
44.99000 441.968
45.16000 357.539
45.33000 281.932
45.50000 240.095
45.67000 207.683
45.84000 194.949
46.01000 190.672
46.18000 170.438
46.35000 180.351
46.52000 161.808
46.69000 167.708
46.86000 176.662
47.03000 168.772
47.20000 158.271
47.37000 164.505
47.54000 164.824
47.71000 162.594
47.88000 151.424
48.05000 156.395
48.22000 157.964
48.39000 155.561
48.56000 157.875
48.73000 172.784
48.90000 166.194
49.07000 154.653
49.24000 154.386
49.41000 151.035
49.58000 143.640
49.75000 159.533
49.92000 154.393
50.09000 156.425
50.26000 178.514
50.43000 206.992
50.60000 238.497
50.77000 215.886
50.94000 178.010
51.11000 162.350
51.28000 149.972
51.45000 147.181
51.62000 143.271
51.79000 144.871
51.96000 132.426
52.13000 132.419
52.30000 141.289
52.47000 141.516
52.64000 139.749
52.81000 144.521
52.98000 132.596
53.15000 142.373
53.32000 152.840
53.49000 153.810
53.66000 145.591
53.83000 142.498
54.00000 140.475
54.17000 143.053
54.34000 144.888
54.51000 144.651
54.68000 136.222
54.85000 132.794
55.02000 127.950
55.19000 146.844
55.36000 194.399
55.53000 284.932
55.70000 414.185
55.87000 483.424
56.04000 392.412
56.21000 243.266
56.38000 180.813
56.55000 147.545
56.72000 141.384
56.89000 120.454
57.06000 129.776
57.23000 115.615
57.40000 125.500
57.57000 117.421
57.74000 119.027
57.91000 114.953
58.08000 121.548
58.25000 123.208
58.42000 114.669
58.59000 118.973
58.76000 120.065
58.93000 120.946
59.10000 117.150
59.27000 118.184
59.44000 108.231
59.61000 114.727
59.78000 111.492
59.95000 111.886
60.12000 122.160
60.29000 107.669
60.46000 112.542
60.63000 114.853
60.80000 118.929
60.97000 123.110
61.14000 128.111
61.31000 132.087
61.48000 145.441
61.65000 347.873
61.82000 218.121
61.99000 130.338
62.16000 141.254
62.33000 127.310
62.50000 139.371
62.67000 129.428
62.84000 126.272
63.01000 137.076
63.18000 131.602
63.35000 142.215
63.52000 127.436
63.69000 139.758
63.86000 152.253
64.03000 149.460
64.20000 153.598
64.37000 149.622
64.54000 173.103
64.71000 181.636
64.88000 199.313
65.05000 238.710
65.22000 304.713
65.39000 379.791
65.56000 499.372
65.73000 1541.082
65.90000 2583.223
66.07000 604.047
66.24000 486.351
66.41000 786.884
66.58000 442.704
66.75000 387.774
66.92000 383.960
67.09000 432.241
67.26000 456.535
67.43000 467.876
67.60000 493.044
67.77000 513.555
67.94000 571.775
68.11000 585.786
68.28000 665.242
68.45000 746.517
68.62000 1099.151
68.79000 2146.675
68.96000 16267.025
69.13000 60808.551
69.30000 32101.646
69.47000 7077.609
69.64000 1068.897
69.81000 669.424
69.98000 535.742
70.00000 533.387

File: BTO_Mapping_Theta2Theta_07-10-2025_001_35_-19-563_-4-158.xy
20.00000 468.568
20.17000 479.623
20.34000 460.689
20.51000 452.618
20.68000 461.001
20.85000 462.999
21.02000 482.428
21.19000 470.568
21.36000 458.576
21.53000 471.141
21.70000 476.621
21.87000 513.504
22.04000 583.668
22.21000 561.228
22.38000 456.476
22.55000 441.360
22.72000 437.312
22.89000 437.658
23.06000 418.123
23.23000 432.613
23.40000 441.502
23.57000 421.626
23.74000 422.963
23.91000 430.851
24.08000 435.497
24.25000 426.727
24.42000 412.606
24.59000 401.874
24.76000 413.580
24.93000 381.472
25.10000 391.275
25.27000 399.986
25.44000 388.974
25.61000 391.661
25.78000 382.696
25.95000 384.581
26.12000 370.594
26.29000 381.316
26.46000 374.025
26.63000 379.434
26.80000 366.402
26.97000 386.261
27.14000 367.377
27.31000 376.135
27.48000 371.377
27.65000 373.149
27.82000 356.813
27.99000 367.994
28.16000 365.365
28.33000 377.775
28.50000 358.884
28.67000 345.257
28.84000 348.360
29.01000 363.536
29.18000 332.735
29.35000 352.064
29.52000 347.383
29.69000 360.712
29.86000 394.717
30.03000 413.736
30.20000 403.626
30.37000 394.140
30.54000 345.340
30.71000 388.579
30.88000 431.453
31.05000 694.900
31.22000 1685.829
31.39000 2374.194
31.56000 1138.642
31.73000 494.093
31.90000 356.307
32.07000 351.444
32.24000 332.051
32.41000 322.252
32.58000 312.902
32.75000 307.449
32.92000 514.629
33.09000 414.301
33.26000 299.105
33.43000 287.219
33.60000 290.138
33.77000 306.386
33.94000 279.743
34.11000 298.718
34.28000 289.182
34.45000 306.499
34.62000 293.452
34.79000 288.157
34.96000 271.492
35.13000 267.031
35.30000 266.071
35.47000 262.847
35.64000 255.014
35.81000 250.444
35.98000 259.335
36.15000 258.853
36.32000 243.778
36.49000 271.614
36.66000 242.000
36.83000 249.254
37.00000 257.566
37.17000 261.382
37.34000 255.282
37.51000 255.930
37.68000 252.955
37.85000 251.135
38.02000 247.152
38.19000 266.192
38.36000 350.354
38.53000 612.328
38.70000 841.125
38.87000 593.582
39.04000 296.385
39.21000 251.112
39.38000 216.753
39.55000 218.181
39.72000 231.047
39.89000 237.454
40.06000 214.839
40.23000 219.254
40.40000 222.132
40.57000 211.713
40.74000 219.883
40.91000 210.850
41.08000 205.260
41.25000 199.424
41.42000 207.051
41.59000 208.586
41.76000 205.837
41.93000 194.039
42.10000 193.192
42.27000 198.947
42.44000 197.564
42.61000 193.334
42.78000 193.141
42.95000 197.833
43.12000 199.194
43.29000 199.728
43.46000 186.153
43.63000 190.565
43.80000 182.556
43.97000 213.803
44.14000 190.517
44.31000 201.905
44.48000 195.153
44.65000 228.668
44.82000 249.411
44.99000 298.074
45.16000 286.994
45.33000 245.622
45.50000 217.492
45.67000 207.725
45.84000 188.327
46.01000 185.491
46.18000 171.740
46.35000 169.543
46.52000 175.750
46.69000 185.828
46.86000 169.642
47.03000 172.815
47.20000 163.411
47.37000 153.423
47.54000 165.480
47.71000 161.459
47.88000 159.682
48.05000 156.992
48.22000 170.070
48.39000 157.496
48.56000 162.313
48.73000 158.498
48.90000 156.997
49.07000 156.319
49.24000 147.415
49.41000 151.837
49.58000 152.856
49.75000 155.997
49.92000 146.176
50.09000 151.912
50.26000 174.780
50.43000 192.366
50.60000 202.238
50.77000 194.780
50.94000 166.234
51.11000 150.358
51.28000 155.885
51.45000 142.949
51.62000 147.373
51.79000 134.150
51.96000 140.628
52.13000 130.342
52.30000 139.860
52.47000 134.683
52.64000 137.415
52.81000 120.085
52.98000 145.256
53.15000 142.411
53.32000 156.749
53.49000 147.319
53.66000 141.885
53.83000 148.629
54.00000 132.060
54.17000 139.548
54.34000 135.908
54.51000 129.056
54.68000 137.296
54.85000 137.857
55.02000 141.845
55.19000 153.699
55.36000 169.015
55.53000 263.998
55.70000 451.015
55.87000 574.297
56.04000 457.912
56.21000 282.356
56.38000 186.256
56.55000 132.014
56.72000 131.852
56.89000 129.260
57.06000 125.451
57.23000 125.536
57.40000 123.229
57.57000 124.708
57.74000 130.900
57.91000 122.336
58.08000 126.547
58.25000 119.463
58.42000 121.784
58.59000 117.778
58.76000 124.530
58.93000 112.441
59.10000 113.829
59.27000 113.589
59.44000 123.736
59.61000 116.290
59.78000 115.634
59.95000 113.112
60.12000 117.637
60.29000 112.463
60.46000 113.135
60.63000 116.044
60.80000 117.509
60.97000 122.850
61.14000 112.976
61.31000 122.360
61.48000 137.983
61.65000 314.643
61.82000 196.077
61.99000 124.072
62.16000 127.797
62.33000 132.938
62.50000 129.793
62.67000 138.924
62.84000 125.999
63.01000 128.478
63.18000 132.363
63.35000 135.831
63.52000 123.025
63.69000 131.252
63.86000 140.261
64.03000 144.000
64.20000 143.616
64.37000 151.293
64.54000 155.967
64.71000 166.727
64.88000 172.673
65.05000 216.702
65.22000 273.256
65.39000 317.376
65.56000 425.716
65.73000 1270.567
65.90000 2186.954
66.07000 531.012
66.24000 429.839
66.41000 681.318
66.58000 452.136
66.75000 365.849
66.92000 373.735
67.09000 395.418
67.26000 414.608
67.43000 425.932
67.60000 441.261
67.77000 477.253
67.94000 469.428
68.11000 538.630
68.28000 595.209
68.45000 665.776
68.62000 958.271
68.79000 1752.956
68.96000 11850.195
69.13000 50044.688
69.30000 26720.965
69.47000 6177.937
69.64000 965.659
69.81000 629.578
69.98000 516.436
70.00000 496.878

File: BTO_Mapping_Theta2Theta_07-10-2025_001_36_-29-344_-6-237.xy
20.00000 491.185
20.17000 460.970
20.34000 459.158
20.51000 449.932
20.68000 467.133
20.85000 480.591
21.02000 469.600
21.19000 470.934
21.36000 485.062
21.53000 468.428
21.70000 521.910
21.87000 648.324
22.04000 699.288
22.21000 585.166
22.38000 460.849
22.55000 467.837
22.72000 433.693
22.89000 433.851
23.06000 424.191
23.23000 427.527
23.40000 421.861
23.57000 410.991
23.74000 406.054
23.91000 404.991
24.08000 398.355
24.25000 428.114
24.42000 409.274
24.59000 391.442
24.76000 394.711
24.93000 405.400
25.10000 394.104
25.27000 384.816
25.44000 377.412
25.61000 392.735
25.78000 388.915
25.95000 400.385
26.12000 390.117
26.29000 376.059
26.46000 387.653
26.63000 367.482
26.80000 373.458
26.97000 373.763
27.14000 360.677
27.31000 368.866
27.48000 351.705
27.65000 355.375
27.82000 381.298
27.99000 364.630
28.16000 372.336
28.33000 357.617
28.50000 354.730
28.67000 370.923
28.84000 343.143
29.01000 351.327
29.18000 347.395
29.35000 351.282
29.52000 339.620
29.69000 365.442
29.86000 425.550
30.03000 441.956
30.20000 410.606
30.37000 395.430
30.54000 384.793
30.71000 409.397
30.88000 458.950
31.05000 876.502
31.22000 2227.990
31.39000 2839.496
31.56000 1316.781
31.73000 513.535
31.90000 369.552
32.07000 347.530
32.24000 331.189
32.41000 322.958
32.58000 313.633
32.75000 308.780
32.92000 544.807
33.09000 417.909
33.26000 282.954
33.43000 284.169
33.60000 303.043
33.77000 277.660
33.94000 283.923
34.11000 284.935
34.28000 279.895
34.45000 274.973
34.62000 269.419
34.79000 272.913
34.96000 269.417
35.13000 277.123
35.30000 251.467
35.47000 265.963
35.64000 251.650
35.81000 266.117
35.98000 264.312
36.15000 253.903
36.32000 252.147
36.49000 250.676
36.66000 275.817
36.83000 252.454
37.00000 248.481
37.17000 253.893
37.34000 253.568
37.51000 251.316
37.68000 244.109
37.85000 238.726
38.02000 246.315
38.19000 289.057
38.36000 314.016
38.53000 492.023
38.70000 553.624
38.87000 414.209
39.04000 270.766
39.21000 233.131
39.38000 226.732
39.55000 248.000
39.72000 232.093
39.89000 229.143
40.06000 225.067
40.23000 225.543
40.40000 209.335
40.57000 211.758
40.74000 209.594
40.91000 214.212
41.08000 235.772
41.25000 219.963
41.42000 196.897
41.59000 212.203
41.76000 207.149
41.93000 198.288
42.10000 192.247
42.27000 187.588
42.44000 197.194
42.61000 212.211
42.78000 199.047
42.95000 203.815
43.12000 194.223
43.29000 191.118
43.46000 204.337
43.63000 198.571
43.80000 189.462
43.97000 197.934
44.14000 191.479
44.31000 207.288
44.48000 228.953
44.65000 265.375
44.82000 365.927
44.99000 423.611
45.16000 347.852
45.33000 278.084
45.50000 219.208
45.67000 196.413
45.84000 199.317
46.01000 188.116
46.18000 178.975
46.35000 173.062
46.52000 172.436
46.69000 174.123
46.86000 172.489
47.03000 162.733
47.20000 159.470
47.37000 155.215
47.54000 154.434
47.71000 160.027
47.88000 155.991
48.05000 150.641
48.22000 168.420
48.39000 153.436
48.56000 149.874
48.73000 154.162
48.90000 155.128
49.07000 158.932
49.24000 153.224
49.41000 149.403
49.58000 144.035
49.75000 154.708
49.92000 162.920
50.09000 153.305
50.26000 182.207
50.43000 211.255
50.60000 243.372
50.77000 214.024
50.94000 179.898
51.11000 146.875
51.28000 141.148
51.45000 136.457
51.62000 139.294
51.79000 142.050
51.96000 147.744
52.13000 139.663
52.30000 143.133
52.47000 137.349
52.64000 131.469
52.81000 145.360
52.98000 139.760
53.15000 148.162
53.32000 143.619
53.49000 147.187
53.66000 146.084
53.83000 140.375
54.00000 137.990
54.17000 135.151
54.34000 136.030
54.51000 127.373
54.68000 139.457
54.85000 130.003
55.02000 156.392
55.19000 144.043
55.36000 196.197
55.53000 294.630
55.70000 459.580
55.87000 535.945
56.04000 417.447
56.21000 257.003
56.38000 178.476
56.55000 140.670
56.72000 127.735
56.89000 126.014
57.06000 132.021
57.23000 130.543
57.40000 130.110
57.57000 119.055
57.74000 122.182
57.91000 121.774
58.08000 124.806
58.25000 122.116
58.42000 117.614
58.59000 120.833
58.76000 117.650
58.93000 118.926
59.10000 110.601
59.27000 125.288
59.44000 116.852
59.61000 125.211
59.78000 114.618
59.95000 118.132
60.12000 116.683
60.29000 116.108
60.46000 113.694
60.63000 116.518
60.80000 115.935
60.97000 112.070
61.14000 120.013
61.31000 122.528
61.48000 139.795
61.65000 325.567
61.82000 205.333
61.99000 127.880
62.16000 135.804
62.33000 123.992
62.50000 132.942
62.67000 130.779
62.84000 133.879
63.01000 131.426
63.18000 135.392
63.35000 142.485
63.52000 137.713
63.69000 143.125
63.86000 135.087
64.03000 151.479
64.20000 146.683
64.37000 159.120
64.54000 166.324
64.71000 186.795
64.88000 198.973
65.05000 239.776
65.22000 307.078
65.39000 377.154
65.56000 469.997
65.73000 1414.348
65.90000 2508.708
66.07000 575.782
66.24000 465.844
66.41000 745.550
66.58000 471.587
66.75000 400.446
66.92000 404.054
67.09000 415.894
67.26000 417.359
67.43000 449.242
67.60000 470.962
67.77000 487.637
67.94000 526.719
68.11000 581.738
68.28000 612.349
68.45000 721.047
68.62000 1036.942
68.79000 2010.992
68.96000 14457.800
69.13000 57779.918
69.30000 30676.406
69.47000 7106.280
69.64000 1024.805
69.81000 671.221
69.98000 532.861
70.00000 526.940