Folder: Master-Thesis/XRD/XRD/07-10-2025 Dep 6/XY Data (part 7)

File: BTO_Mapping_Theta2Theta_07-10-2025_001_50_3-090_-9-511.xy
20.00000 500.764
20.17000 470.544
20.34000 460.798
20.51000 465.041
20.68000 473.484
20.85000 464.343
21.02000 450.467
21.19000 440.654
21.36000 461.019
21.53000 469.071
21.70000 463.242
21.87000 482.429
22.04000 551.039
22.21000 503.548
22.38000 490.420
22.55000 451.922
22.72000 442.978
22.89000 432.268
23.06000 423.137
23.23000 437.925
23.40000 420.196
23.57000 421.202
23.74000 458.479
23.91000 501.164
24.08000 480.324
24.25000 445.471
24.42000 438.162
24.59000 416.229
24.76000 406.146
24.93000 404.254
25.10000 394.151
25.27000 384.320
25.44000 408.077
25.61000 381.150
25.78000 373.239
25.95000 375.927
26.12000 392.336
26.29000 386.465
26.46000 383.301
26.63000 362.885
26.80000 368.930
26.97000 383.014
27.14000 372.453
27.31000 380.217
27.48000 364.522
27.65000 354.458
27.82000 360.501
27.99000 360.503
28.16000 364.567
28.33000 348.327
28.50000 359.383
28.67000 362.149
28.84000 342.433
29.01000 336.846
29.18000 353.379
29.35000 339.756
29.52000 352.705
29.69000 349.442
29.86000 365.161
30.03000 373.550
30.20000 370.584
30.37000 369.689
30.54000 374.711
30.71000 376.927
30.88000 394.380
31.05000 478.424
31.22000 807.011
31.39000 1177.494
31.56000 831.785
31.73000 452.332
31.90000 376.278
32.07000 342.276
32.24000 338.315
32.41000 331.003
32.58000 322.335
32.75000 310.834
32.92000 474.822
33.09000 397.058
33.26000 309.142
33.43000 284.469
33.60000 302.475
33.77000 297.136
33.94000 294.258
34.11000 309.473
34.28000 323.336
34.45000 334.136
34.62000 304.215
34.79000 283.968
34.96000 278.192
35.13000 272.741
35.30000 282.305
35.47000 261.160
35.64000 255.478
35.81000 248.324
35.98000 262.449
36.15000 253.658
36.32000 266.624
36.49000 250.858
36.66000 246.165
36.83000 260.412
37.00000 283.634
37.17000 260.515
37.34000 244.959
37.51000 240.097
37.68000 242.276
37.85000 245.040
38.02000 259.135
38.19000 247.364
38.36000 278.451
38.53000 546.524
38.70000 954.238
38.87000 723.886
39.04000 332.705
39.21000 241.055
39.38000 241.317
39.55000 238.139
39.72000 229.872
39.89000 238.249
40.06000 219.878
40.23000 219.486
40.40000 219.015
40.57000 215.975
40.74000 206.746
40.91000 203.117
41.08000 211.023
41.25000 217.738
41.42000 205.623
41.59000 203.746
41.76000 194.596
41.93000 202.033
42.10000 215.354
42.27000 216.940
42.44000 208.866
42.61000 215.121
42.78000 205.157
42.95000 193.428
43.12000 191.411
43.29000 190.615
43.46000 193.031
43.63000 194.648
43.80000 178.141
43.97000 175.097
44.14000 192.719
44.31000 186.041
44.48000 207.728
44.65000 221.853
44.82000 221.067
44.99000 240.801
45.16000 244.635
45.33000 220.950
45.50000 212.717
45.67000 206.260
45.84000 201.202
46.01000 185.232
46.18000 172.671
46.35000 164.071
46.52000 175.138
46.69000 169.384
46.86000 167.020
47.03000 171.206
47.20000 158.756
47.37000 167.612
47.54000 175.126
47.71000 160.694
47.88000 156.666
48.05000 159.066
48.22000 152.398
48.39000 155.480
48.56000 169.508
48.73000 145.387
48.90000 152.077
49.07000 154.464
49.24000 154.161
49.41000 150.641
49.58000 142.156
49.75000 144.496
49.92000 155.860
50.09000 161.231
50.26000 144.206
50.43000 168.972
50.60000 157.410
50.77000 158.559
50.94000 158.505
51.11000 142.614
51.28000 148.318
51.45000 148.551
51.62000 140.414
51.79000 132.740
51.96000 147.150
52.13000 141.783
52.30000 139.002
52.47000 137.929
52.64000 146.086
52.81000 137.658
52.98000 136.132
53.15000 143.250
53.32000 154.031
53.49000 149.598
53.66000 148.059
53.83000 139.652
54.00000 138.428
54.17000 128.737
54.34000 136.719
54.51000 130.849
54.68000 132.581
54.85000 145.999
55.02000 144.378
55.19000 152.156
55.36000 152.818
55.53000 200.895
55.70000 325.867
55.87000 513.473
56.04000 551.264
56.21000 346.407
56.38000 195.602
56.55000 163.718
56.72000 135.859
56.89000 138.586
57.06000 123.311
57.23000 137.018
57.40000 124.725
57.57000 122.685
57.74000 118.894
57.91000 127.594
58.08000 124.615
58.25000 125.262
58.42000 118.866
58.59000 128.435
58.76000 114.801
58.93000 112.936
59.10000 121.787
59.27000 119.822
59.44000 112.258
59.61000 110.609
59.78000 123.170
59.95000 112.836
60.12000 111.799
60.29000 116.811
60.46000 116.360
60.63000 120.366
60.80000 116.046
60.97000 125.942
61.14000 122.115
61.31000 123.742
61.48000 135.678
61.65000 283.043
61.82000 175.957
61.99000 125.453
62.16000 127.386
62.33000 131.475
62.50000 132.647
62.67000 133.543
62.84000 127.916
63.01000 132.362
63.18000 131.715
63.35000 135.879
63.52000 132.291
63.69000 135.805
63.86000 143.215
64.03000 145.692
64.20000 140.490
64.37000 150.993
64.54000 154.768
64.71000 153.878
64.88000 172.183
65.05000 187.948
65.22000 203.458
65.39000 254.502
65.56000 322.765
65.73000 990.864
65.90000 1875.142
66.07000 488.353
66.24000 372.194
66.41000 607.102
66.58000 408.246
66.75000 351.753
66.92000 352.207
67.09000 380.573
67.26000 391.618
67.43000 407.937
67.60000 434.126
67.77000 448.329
67.94000 485.233
68.11000 512.068
68.28000 585.016
68.45000 630.783
68.62000 873.923
68.79000 1525.151
68.96000 8957.393
69.13000 43125.410
69.30000 23477.738
69.47000 5797.293
69.64000 877.680
69.81000 595.534
69.98000 506.109
70.00000 488.185

File: BTO_Mapping_Theta2Theta_07-10-2025_001_51_6-180_-19-021.xy
20.00000 454.675
20.17000 482.309
20.34000 454.230
20.51000 456.074
20.68000 466.576
20.85000 463.637
21.02000 456.271
21.19000 471.610
21.36000 490.484
21.53000 440.622
21.70000 463.747
21.87000 485.382
22.04000 527.763
22.21000 500.858
22.38000 475.878
22.55000 454.834
22.72000 441.787
22.89000 428.373
23.06000 449.093
23.23000 444.499
23.40000 431.067
23.57000 429.897
23.74000 458.021
23.91000 501.878
24.08000 479.616
24.25000 462.571
24.42000 422.324
24.59000 414.386
24.76000 403.586
24.93000 402.299
25.10000 409.508
25.27000 392.659
25.44000 393.308
25.61000 388.333
25.78000 385.927
25.95000 391.143
26.12000 368.413
26.29000 368.240
26.46000 377.671
26.63000 359.647
26.80000 369.933
26.97000 380.579
27.14000 382.984
27.31000 385.792
27.48000 387.973
27.65000 355.513
27.82000 351.417
27.99000 371.924
28.16000 351.974
28.33000 352.975
28.50000 338.983
28.67000 352.586
28.84000 370.590
29.01000 339.731
29.18000 356.818
29.35000 338.575
29.52000 358.770
29.69000 349.796
29.86000 370.262
30.03000 391.854
30.20000 384.477
30.37000 368.241
30.54000 373.817
30.71000 363.369
30.88000 389.314
31.05000 488.411
31.22000 848.131
31.39000 1210.209
31.56000 835.614
31.73000 455.000
31.90000 365.906
32.07000 329.141
32.24000 339.076
32.41000 334.276
32.58000 312.109
32.75000 328.572
32.92000 504.851
33.09000 405.084
33.26000 300.236
33.43000 291.153
33.60000 296.672
33.77000 285.990
33.94000 312.457
34.11000 299.656
34.28000 343.582
34.45000 326.813
34.62000 300.481
34.79000 280.947
34.96000 266.701
35.13000 264.658
35.30000 269.965
35.47000 261.482
35.64000 256.692
35.81000 256.780
35.98000 266.535
36.15000 254.968
36.32000 251.527
36.49000 252.214
36.66000 261.984
36.83000 245.805
37.00000 266.196
37.17000 257.510
37.34000 269.500
37.51000 251.081
37.68000 249.007
37.85000 245.302
38.02000 253.642
38.19000 250.995
38.36000 292.222
38.53000 532.854
38.70000 935.330
38.87000 697.899
39.04000 326.866
39.21000 255.116
39.38000 227.894
39.55000 252.464
39.72000 237.319
39.89000 240.221
40.06000 228.223
40.23000 214.196
40.40000 232.755
40.57000 216.658
40.74000 212.318
40.91000 216.886
41.08000 214.802
41.25000 200.627
41.42000 215.901
41.59000 199.501
41.76000 209.820
41.93000 211.821
42.10000 221.554
42.27000 217.430
42.44000 212.963
42.61000 207.303
42.78000 198.351
42.95000 192.244
43.12000 185.862
43.29000 196.124
43.46000 192.884
43.63000 198.002
43.80000 181.777
43.97000 190.373
44.14000 200.573
44.31000 195.855
44.48000 205.714
44.65000 217.660
44.82000 229.484
44.99000 237.949
45.16000 253.489
45.33000 225.024
45.50000 208.463
45.67000 199.490
45.84000 185.868
46.01000 183.521
46.18000 177.636
46.35000 173.847
46.52000 172.014
46.69000 171.955
46.86000 163.606
47.03000 175.938
47.20000 161.055
47.37000 159.801
47.54000 170.010
47.71000 163.694
47.88000 158.664
48.05000 149.603
48.22000 156.474
48.39000 158.016
48.56000 150.593
48.73000 152.412
48.90000 147.830
49.07000 158.084
49.24000 148.207
49.41000 155.228
49.58000 138.856
49.75000 148.013
49.92000 147.954
50.09000 155.123
50.26000 153.618
50.43000 158.784
50.60000 155.649
50.77000 156.984
50.94000 148.997
51.11000 150.758
51.28000 140.082
51.45000 146.556
51.62000 128.965
51.79000 151.203
51.96000 138.663
52.13000 131.751
52.30000 137.642
52.47000 137.749
52.64000 141.689
52.81000 141.177
52.98000 135.833
53.15000 139.561
53.32000 139.601
53.49000 152.276
53.66000 141.990
53.83000 145.411
54.00000 138.680
54.17000 139.501
54.34000 139.272
54.51000 138.402
54.68000 134.804
54.85000 152.088
55.02000 143.804
55.19000 142.995
55.36000 161.018
55.53000 202.781
55.70000 315.347
55.87000 516.899
56.04000 508.949
56.21000 330.276
56.38000 200.591
56.55000 146.949
56.72000 144.973
56.89000 128.094
57.06000 129.071
57.23000 121.906
57.40000 115.040
57.57000 125.827
57.74000 114.568
57.91000 125.434
58.08000 128.128
58.25000 119.578
58.42000 111.631
58.59000 114.809
58.76000 121.550
58.93000 119.256
59.10000 119.251
59.27000 117.561
59.44000 112.752
59.61000 123.319
59.78000 120.676
59.95000 112.534
60.12000 119.067
60.29000 114.364
60.46000 111.326
60.63000 128.823
60.80000 114.542
60.97000 115.811
61.14000 114.562
61.31000 124.188
61.48000 131.455
61.65000 290.183
61.82000 190.129
61.99000 131.658
62.16000 120.984
62.33000 128.124
62.50000 133.195
62.67000 126.559
62.84000 128.704
63.01000 121.137
63.18000 131.083
63.35000 134.004
63.52000 136.958
63.69000 127.436
63.86000 131.748
64.03000 138.902
64.20000 150.572
64.37000 151.386
64.54000 160.139
64.71000 172.805
64.88000 182.149
65.05000 183.440
65.22000 197.406
65.39000 271.680
65.56000 323.977
65.73000 986.007
65.90000 1881.792
66.07000 484.870
66.24000 379.867
66.41000 648.312
66.58000 412.257
66.75000 342.504
66.92000 348.419
67.09000 371.812
67.26000 394.385
67.43000 411.267
67.60000 411.642
67.77000 458.534
67.94000 467.547
68.11000 515.099
68.28000 561.090
68.45000 655.934
68.62000 870.777
68.79000 1534.646
68.96000 8824.435
69.13000 42856.461
69.30000 23543.002
69.47000 5907.442
69.64000 927.062
69.81000 613.898
69.98000 503.573
70.00000 494.993

File: BTO_Mapping_Theta2Theta_07-10-2025_001_52_9-271_-28-532.xy
20.00000 484.135
20.17000 461.588
20.34000 475.306
20.51000 467.358
20.68000 476.006
20.85000 473.236
21.02000 479.533
21.19000 457.823
21.36000 469.551
21.53000 473.401
21.70000 478.592
21.87000 495.213
22.04000 517.686
22.21000 502.249
22.38000 489.486
22.55000 440.570
22.72000 452.072
22.89000 444.846
23.06000 420.933
23.23000 423.860
23.40000 409.869
23.57000 439.993
23.74000 472.449
23.91000 493.534
24.08000 502.198
24.25000 450.868
24.42000 426.426
24.59000 411.994
24.76000 399.016
24.93000 400.600
25.10000 420.862
25.27000 410.531
25.44000 405.185
25.61000 383.759
25.78000 400.211
25.95000 389.798
26.12000 392.374
26.29000 367.446
26.46000 375.144
26.63000 376.098
26.80000 379.173
26.97000 377.192
27.14000 365.286
27.31000 375.038
27.48000 358.380
27.65000 354.734
27.82000 368.337
27.99000 357.413
28.16000 347.140
28.33000 368.347
28.50000 347.734
28.67000 345.887
28.84000 338.752
29.01000 353.162
29.18000 338.956
29.35000 351.351
29.52000 356.039
29.69000 350.850
29.86000 358.844
30.03000 384.358
30.20000 366.321
30.37000 368.232
30.54000 351.248
30.71000 377.852
30.88000 388.580
31.05000 499.444
31.22000 864.878
31.39000 1244.307
31.56000 869.640
31.73000 492.107
31.90000 391.257
32.07000 353.208
32.24000 338.000
32.41000 334.245
32.58000 337.721
32.75000 322.484
32.92000 466.872
33.09000 421.086
33.26000 300.611
33.43000 301.363
33.60000 286.660
33.77000 298.660
33.94000 289.679
34.11000 316.656
34.28000 328.816
34.45000 319.633
34.62000 303.419
34.79000 291.439
34.96000 273.121
35.13000 254.132
35.30000 257.130
35.47000 262.047
35.64000 260.591
35.81000 269.122
35.98000 262.489
36.15000 268.107
36.32000 271.689
36.49000 248.604
36.66000 266.736
36.83000 262.140
37.00000 269.451
37.17000 265.659
37.34000 272.824
37.51000 240.779
37.68000 244.346
37.85000 261.992
38.02000 261.080
38.19000 259.544
38.36000 302.024
38.53000 518.903
38.70000 892.372
38.87000 686.408
39.04000 310.966
39.21000 247.370
39.38000 229.113
39.55000 234.639
39.72000 224.487
39.89000 231.695
40.06000 235.540
40.23000 220.109
40.40000 224.288
40.57000 216.861
40.74000 232.572
40.91000 206.354
41.08000 222.953
41.25000 207.090
41.42000 195.416
41.59000 206.662
41.76000 201.148
41.93000 214.813
42.10000 215.863
42.27000 221.979
42.44000 223.421
42.61000 219.345
42.78000 198.768
42.95000 193.527
43.12000 198.075
43.29000 190.492
43.46000 197.012
43.63000 196.284
43.80000 195.899
43.97000 180.000
44.14000 187.457
44.31000 187.611
44.48000 201.313
44.65000 211.820
44.82000 220.032
44.99000 245.745
45.16000 240.801
45.33000 217.747
45.50000 206.518
45.67000 196.170
45.84000 189.774
46.01000 179.407
46.18000 174.843
46.35000 169.670
46.52000 165.401
46.69000 171.648
46.86000 155.998
47.03000 167.663
47.20000 162.331
47.37000 162.556
47.54000 172.174
47.71000 162.212
47.88000 164.608
48.05000 160.065
48.22000 146.980
48.39000 160.388
48.56000 149.852
48.73000 149.549
48.90000 165.318
49.07000 146.097
49.24000 161.524
49.41000 151.394
49.58000 164.856
49.75000 157.495
49.92000 148.824
50.09000 134.905
50.26000 162.437
50.43000 149.653
50.60000 156.838
50.77000 156.362
50.94000 163.480
51.11000 151.143
51.28000 149.340
51.45000 144.295
51.62000 136.878
51.79000 134.643
51.96000 140.917
52.13000 135.049
52.30000 134.788
52.47000 147.094
52.64000 123.698
52.81000 142.960
52.98000 140.755
53.15000 156.382
53.32000 149.445
53.49000 146.232
53.66000 141.003
53.83000 147.772
54.00000 136.972
54.17000 135.156
54.34000 145.362
54.51000 137.091
54.68000 137.701
54.85000 148.761
55.02000 144.520
55.19000 143.264
55.36000 162.005
55.53000 208.397
55.70000 322.247
55.87000 490.426
56.04000 495.639
56.21000 321.342
56.38000 206.398
56.55000 160.965
56.72000 137.414
56.89000 136.944
57.06000 136.521
57.23000 127.463
57.40000 124.963
57.57000 129.470
57.74000 135.547
57.91000 123.820
58.08000 123.003
58.25000 127.248
58.42000 128.759
58.59000 125.401
58.76000 120.411
58.93000 115.693
59.10000 118.937
59.27000 122.190
59.44000 128.090
59.61000 114.384
59.78000 115.936
59.95000 113.854
60.12000 112.150
60.29000 120.652
60.46000 114.932
60.63000 110.104
60.80000 107.854
60.97000 120.763
61.14000 118.508
61.31000 125.524
61.48000 132.068
61.65000 282.468
61.82000 206.360
61.99000 129.686
62.16000 122.323
62.33000 119.546
62.50000 128.519
62.67000 126.668
62.84000 136.223
63.01000 125.534
63.18000 131.318
63.35000 130.063
63.52000 129.525
63.69000 128.937
63.86000 136.091
64.03000 150.242
64.20000 148.944
64.37000 149.134
64.54000 164.423
64.71000 162.006
64.88000 183.907
65.05000 186.404
65.22000 217.593
65.39000 255.607
65.56000 331.893
65.73000 980.565
65.90000 1903.573
66.07000 511.438
66.24000 382.922
66.41000 610.066
66.58000 393.424
66.75000 356.423
66.92000 352.105
67.09000 356.349
67.26000 392.330
67.43000 408.923
67.60000 422.900
67.77000 463.508
67.94000 503.437
68.11000 517.006
68.28000 573.283
68.45000 638.896
68.62000 856.891
68.79000 1538.078
68.96000 8686.005
69.13000 42813.652
69.30000 23752.279
69.47000 5836.056
69.64000 876.927
69.81000 614.422
69.98000 507.465
70.00000 497.189

File: BTO_Mapping_Theta2Theta_07-10-2025_001_53_12-361_-38-042.xy
20.00000 471.111
20.17000 473.535
20.34000 469.462
20.51000 440.831
20.68000 472.455
20.85000 461.989
21.02000 454.302
21.19000 464.716
21.36000 459.727
21.53000 449.334
21.70000 465.327
21.87000 488.059
22.04000 503.500
22.21000 494.412
22.38000 460.346
22.55000 442.679
22.72000 433.915
22.89000 458.027
23.06000 426.143
23.23000 419.612
23.40000 432.009
23.57000 437.395
23.74000 475.053
23.91000 504.515
24.08000 495.047
24.25000 457.248
24.42000 445.906
24.59000 410.117
24.76000 408.071
24.93000 405.374
25.10000 402.098
25.27000 394.502
25.44000 379.188
25.61000 420.069
25.78000 394.827
25.95000 378.024
26.12000 375.790
26.29000 379.727
26.46000 374.288
26.63000 391.390
26.80000 376.564
26.97000 372.976
27.14000 374.936
27.31000 367.877
27.48000 375.948
27.65000 366.531
27.82000 369.556
27.99000 368.246
28.16000 371.021
28.33000 351.553
28.50000 362.749
28.67000 360.989
28.84000 347.437
29.01000 349.032
29.18000 359.931
29.35000 351.055
29.52000 360.646
29.69000 343.755
29.86000 387.135
30.03000 381.399
30.20000 377.706
30.37000 370.044
30.54000 367.779
30.71000 380.085
30.88000 397.663
31.05000 479.575
31.22000 871.821
31.39000 1216.395
31.56000 856.463
31.73000 471.228
31.90000 388.958
32.07000 340.419
32.24000 353.566
32.41000 339.572
32.58000 315.367
32.75000 313.510
32.92000 478.952
33.09000 429.702
33.26000 309.756
33.43000 291.213
33.60000 292.603
33.77000 282.653
33.94000 317.887
34.11000 321.044
34.28000 320.340
34.45000 325.845
34.62000 297.591
34.79000 285.383
34.96000 282.843
35.13000 272.615
35.30000 260.050
35.47000 264.629
35.64000 255.486
35.81000 258.881
35.98000 261.527
36.15000 262.305
36.32000 258.586
36.49000 250.001
36.66000 256.966
36.83000 261.428
37.00000 279.937
37.17000 267.031
37.34000 242.557
37.51000 243.169
37.68000 252.717
37.85000 252.973
38.02000 255.158
38.19000 260.506
38.36000 300.802
38.53000 495.549
38.70000 861.979
38.87000 661.917
39.04000 301.739
39.21000 247.403
39.38000 246.143
39.55000 255.237
39.72000 240.619
39.89000 226.931
40.06000 241.506
40.23000 227.646
40.40000 224.843
40.57000 220.105
40.74000 220.266
40.91000 199.536
41.08000 198.265
41.25000 205.639
41.42000 201.073
41.59000 201.867
41.76000 205.009
41.93000 203.670
42.10000 219.845
42.27000 218.342
42.44000 207.006
42.61000 208.032
42.78000 217.749
42.95000 192.040
43.12000 206.840
43.29000 199.101
43.46000 189.202
43.63000 189.537
43.80000 196.478
43.97000 195.061
44.14000 199.512
44.31000 189.943
44.48000 192.029
44.65000 227.583
44.82000 220.496
44.99000 229.138
45.16000 232.202
45.33000 215.527
45.50000 203.623
45.67000 191.028
45.84000 194.788
46.01000 166.892
46.18000 168.615
46.35000 170.843
46.52000 169.140
46.69000 177.905
46.86000 172.089
47.03000 169.554
47.20000 170.309
47.37000 161.740
47.54000 172.521
47.71000 159.142
47.88000 149.356
48.05000 164.767
48.22000 170.149
48.39000 138.027
48.56000 166.049
48.73000 159.841
48.90000 161.729
49.07000 154.336
49.24000 153.771
49.41000 152.389
49.58000 150.233
49.75000 149.273
49.92000 153.620
50.09000 161.064
50.26000 163.004
50.43000 161.743
50.60000 160.929
50.77000 154.585
50.94000 164.298
51.11000 135.003
51.28000 143.590
51.45000 155.000
51.62000 129.061
51.79000 145.830
51.96000 142.738
52.13000 130.652
52.30000 145.378
52.47000 147.856
52.64000 139.417
52.81000 148.654
52.98000 138.675
53.15000 133.901
53.32000 146.443
53.49000 153.006
53.66000 136.748
53.83000 133.533
54.00000 144.262
54.17000 133.287
54.34000 138.623
54.51000 134.774
54.68000 138.448
54.85000 134.685
55.02000 148.078
55.19000 141.573
55.36000 163.448
55.53000 199.047
55.70000 300.400
55.87000 461.777
56.04000 464.155
56.21000 293.850
56.38000 188.458
56.55000 153.955
56.72000 135.426
56.89000 136.723
57.06000 133.506
57.23000 129.083
57.40000 134.482
57.57000 139.321
57.74000 122.710
57.91000 125.939
58.08000 118.605
58.25000 123.371
58.42000 117.096
58.59000 116.541
58.76000 132.716
58.93000 114.292
59.10000 112.646
59.27000 117.708
59.44000 112.924
59.61000 117.528
59.78000 116.558
59.95000 113.810
60.12000 114.260
60.29000 112.067
60.46000 115.503
60.63000 116.812
60.80000 122.343
60.97000 125.468
61.14000 119.185
61.31000 116.684
61.48000 130.959
61.65000 282.756
61.82000 177.595
61.99000 130.838
62.16000 118.264
62.33000 123.672
62.50000 122.997
62.67000 126.264
62.84000 127.636
63.01000 127.234
63.18000 140.057
63.35000 137.541
63.52000 149.459
63.69000 148.928
63.86000 149.435
64.03000 150.441
64.20000 153.017
64.37000 156.787
64.54000 155.604
64.71000 162.541
64.88000 177.927
65.05000 201.808
65.22000 214.477
65.39000 250.264
65.56000 323.849
65.73000 968.102
65.90000 1943.600
66.07000 514.785
66.24000 385.987
66.41000 630.562
66.58000 400.892
66.75000 329.977
66.92000 356.045
67.09000 388.672
67.26000 390.452
67.43000 414.014
67.60000 430.622
67.77000 467.206
67.94000 483.069
68.11000 526.435
68.28000 575.866
68.45000 634.518
68.62000 885.816
68.79000 1569.910
68.96000 8529.522
69.13000 43246.000
69.30000 23952.352
69.47000 6024.280
69.64000 890.867
69.81000 635.569
69.98000 501.732
70.00000 504.498

File: BTO_Mapping_Theta2Theta_07-10-2025_001_54_6-691_-7-431.xy
20.00000 495.738
20.17000 469.464
20.34000 468.519
20.51000 475.281
20.68000 469.520
20.85000 455.062
21.02000 457.780
21.19000 476.409
21.36000 454.097
21.53000 458.097
21.70000 458.454
21.87000 503.209
22.04000 511.625
22.21000 506.403
22.38000 466.622
22.55000 438.812
22.72000 457.911
22.89000 437.534
23.06000 443.317
23.23000 430.440
23.40000 449.185
23.57000 432.434
23.74000 453.155
23.91000 491.488
24.08000 495.074
24.25000 454.020
24.42000 417.473
24.59000 422.149
24.76000 417.757
24.93000 404.873
25.10000 402.559
25.27000 401.537
25.44000 384.802
25.61000 390.308
25.78000 399.097
25.95000 389.593
26.12000 358.680
26.29000 371.737
26.46000 385.066
26.63000 372.632
26.80000 366.526
26.97000 375.397
27.14000 363.354
27.31000 367.654
27.48000 378.494
27.65000 358.525
27.82000 349.785
27.99000 360.867
28.16000 347.281
28.33000 359.445
28.50000 357.987
28.67000 353.448
28.84000 357.522
29.01000 345.516
29.18000 333.400
29.35000 335.703
29.52000 350.189
29.69000 370.039
29.86000 380.268
30.03000 374.982
30.20000 384.959
30.37000 358.296
30.54000 370.288
30.71000 373.298
30.88000 377.789
31.05000 478.011
31.22000 835.806
31.39000 1204.861
31.56000 857.837
31.73000 479.824
31.90000 385.542
32.07000 355.349
32.24000 355.367
32.41000 324.215
32.58000 309.888
32.75000 307.417
32.92000 495.689
33.09000 416.766
33.26000 296.372
33.43000 307.498
33.60000 288.656
33.77000 283.905
33.94000 300.897
34.11000 342.326
34.28000 320.486
34.45000 333.821
34.62000 315.139
34.79000 295.524
34.96000 274.351
35.13000 267.567
35.30000 272.382
35.47000 263.711
35.64000 259.717
35.81000 264.777
35.98000 255.600
36.15000 252.694
36.32000 261.786
36.49000 244.401
36.66000 258.029
36.83000 258.211
37.00000 277.956
37.17000 261.651
37.34000 271.199
37.51000 244.191
37.68000 247.516
37.85000 251.892
38.02000 257.746
38.19000 260.247
38.36000 290.039
38.53000 518.274
38.70000 907.626
38.87000 686.593
39.04000 323.728
39.21000 252.041
39.38000 253.682
39.55000 221.429
39.72000 233.540
39.89000 217.784
40.06000 236.562
40.23000 228.164
40.40000 205.950
40.57000 214.520
40.74000 214.393
40.91000 220.569
41.08000 206.492
41.25000 210.248
41.42000 212.148
41.59000 198.758
41.76000 208.730
41.93000 212.428
42.10000 207.381
42.27000 221.454
42.44000 237.024
42.61000 203.866
42.78000 204.237
42.95000 198.453
43.12000 201.603
43.29000 188.814
43.46000 186.454
43.63000 194.714
43.80000 186.734
43.97000 188.683
44.14000 188.177
44.31000 206.226
44.48000 203.773
44.65000 213.839
44.82000 223.738
44.99000 231.024
45.16000 224.595
45.33000 208.681
45.50000 216.958
45.67000 189.800
45.84000 183.222
46.01000 186.387
46.18000 175.014
46.35000 177.504
46.52000 176.100
46.69000 173.184
46.86000 173.969
47.03000 182.743
47.20000 166.345
47.37000 168.745
47.54000 161.702
47.71000 155.188
47.88000 153.901
48.05000 160.559
48.22000 151.756
48.39000 146.583
48.56000 156.018
48.73000 152.559
48.90000 159.503
49.07000 148.661
49.24000 151.246
49.41000 165.695
49.58000 147.573
49.75000 140.010
49.92000 168.236
50.09000 148.218
50.26000 148.242
50.43000 152.574
50.60000 159.469
50.77000 145.259
50.94000 153.552
51.11000 141.391
51.28000 147.082
51.45000 149.130
51.62000 140.535
51.79000 141.216
51.96000 139.887
52.13000 142.369
52.30000 138.292
52.47000 138.320
52.64000 140.150
52.81000 132.939
52.98000 151.808
53.15000 146.142
53.32000 153.021
53.49000 160.582
53.66000 147.933
53.83000 136.434
54.00000 134.405
54.17000 138.254
54.34000 133.033
54.51000 145.871
54.68000 142.838
54.85000 135.631
55.02000 140.811
55.19000 153.513
55.36000 155.546
55.53000 202.470
55.70000 319.339
55.87000 474.576
56.04000 487.664
56.21000 327.350
56.38000 166.268
56.55000 146.185
56.72000 137.623
56.89000 135.312
57.06000 127.808
57.23000 133.472
57.40000 124.885
57.57000 130.288
57.74000 123.805
57.91000 125.108
58.08000 123.477
58.25000 122.802
58.42000 121.111
58.59000 121.505
58.76000 119.028
58.93000 122.351
59.10000 119.298
59.27000 110.134
59.44000 114.665
59.61000 113.838
59.78000 112.514
59.95000 113.863
60.12000 113.518
60.29000 133.013
60.46000 121.631
60.63000 130.839
60.80000 116.767
60.97000 118.834
61.14000 128.933
61.31000 116.763
61.48000 132.827
61.65000 277.064
61.82000 190.545
61.99000 130.555
62.16000 122.683
62.33000 128.935
62.50000 120.568
62.67000 125.509
62.84000 132.182
63.01000 126.532
63.18000 121.815
63.35000 128.349
63.52000 140.665
63.69000 149.402
63.86000 132.719
64.03000 144.622
64.20000 154.025
64.37000 161.821
64.54000 159.277
64.71000 162.785
64.88000 170.006
65.05000 179.652
65.22000 219.940
65.39000 250.358
65.56000 324.658
65.73000 976.821
65.90000 1910.062
66.07000 500.880
66.24000 390.737
66.41000 621.552
66.58000 398.376
66.75000 362.506
66.92000 356.838
67.09000 370.173
67.26000 378.135
67.43000 417.032
67.60000 421.090
67.77000 463.663
67.94000 480.644
68.11000 520.267
68.28000 554.755
68.45000 649.272
68.62000 879.513
68.79000 1579.996
68.96000 8767.759
69.13000 43032.137
69.30000 23675.191
69.47000 5830.564
69.64000 902.065
69.81000 611.043
69.98000 513.100
70.00000 503.125