Folder: Master-Thesis/XRD/XRD/07-10-2025 Dep 6/XY Data (part 2)

File: BTO_Mapping_Theta2Theta_07-10-2025_001_07_18-271_8-135.xy
20.00000 471.272
20.17000 477.070
20.34000 472.300
20.51000 476.500
20.68000 459.800
20.85000 450.312
21.02000 460.236
21.19000 476.512
21.36000 473.244
21.53000 464.189
21.70000 462.255
21.87000 463.512
22.04000 500.152
22.21000 481.706
22.38000 476.420
22.55000 466.303
22.72000 444.202
22.89000 462.210
23.06000 431.392
23.23000 433.251
23.40000 443.027
23.57000 436.243
23.74000 462.571
23.91000 495.257
24.08000 497.970
24.25000 463.232
24.42000 430.267
24.59000 421.193
24.76000 410.133
24.93000 397.616
25.10000 414.463
25.27000 391.801
25.44000 395.897
25.61000 396.901
25.78000 403.547
25.95000 387.145
26.12000 381.050
26.29000 377.359
26.46000 384.088
26.63000 381.271
26.80000 367.974
26.97000 377.354
27.14000 367.768
27.31000 355.162
27.48000 370.184
27.65000 379.950
27.82000 366.819
27.99000 347.146
28.16000 371.174
28.33000 368.077
28.50000 368.611
28.67000 372.588
28.84000 359.165
29.01000 363.748
29.18000 354.204
29.35000 353.268
29.52000 360.031
29.69000 373.037
29.86000 372.070
30.03000 376.762
30.20000 363.446
30.37000 358.788
30.54000 361.136
30.71000 384.102
30.88000 392.109
31.05000 482.090
31.22000 778.756
31.39000 1005.208
31.56000 734.171
31.73000 477.664
31.90000 370.088
32.07000 346.060
32.24000 333.474
32.41000 323.496
32.58000 332.262
32.75000 309.042
32.92000 501.262
33.09000 442.918
33.26000 288.507
33.43000 298.415
33.60000 286.676
33.77000 288.836
33.94000 313.850
34.11000 315.389
34.28000 317.356
34.45000 292.749
34.62000 286.025
34.79000 292.884
34.96000 272.833
35.13000 271.234
35.30000 269.031
35.47000 269.590
35.64000 264.095
35.81000 261.937
35.98000 258.367
36.15000 260.024
36.32000 238.876
36.49000 264.921
36.66000 260.205
36.83000 278.478
37.00000 266.601
37.17000 254.332
37.34000 253.093
37.51000 239.710
37.68000 242.631
37.85000 252.838
38.02000 249.417
38.19000 260.680
38.36000 300.382
38.53000 467.870
38.70000 673.405
38.87000 482.148
39.04000 274.401
39.21000 256.272
39.38000 230.323
39.55000 248.974
39.72000 231.946
39.89000 217.348
40.06000 222.544
40.23000 219.748
40.40000 215.621
40.57000 212.088
40.74000 221.832
40.91000 208.244
41.08000 204.413
41.25000 190.727
41.42000 223.779
41.59000 207.657
41.76000 207.825
41.93000 217.243
42.10000 213.571
42.27000 223.015
42.44000 218.109
42.61000 210.872
42.78000 200.628
42.95000 190.807
43.12000 198.836
43.29000 200.121
43.46000 190.181
43.63000 199.507
43.80000 190.749
43.97000 202.997
44.14000 185.616
44.31000 181.659
44.48000 207.445
44.65000 212.112
44.82000 221.561
44.99000 231.120
45.16000 232.806
45.33000 212.460
45.50000 214.023
45.67000 183.131
45.84000 185.120
46.01000 182.846
46.18000 180.637
46.35000 177.968
46.52000 183.848
46.69000 186.332
46.86000 176.230
47.03000 182.535
47.20000 152.399
47.37000 170.757
47.54000 159.702
47.71000 163.299
47.88000 164.944
48.05000 153.262
48.22000 150.461
48.39000 159.922
48.56000 158.743
48.73000 163.588
48.90000 159.513
49.07000 151.237
49.24000 159.573
49.41000 140.483
49.58000 157.593
49.75000 144.606
49.92000 154.298
50.09000 156.649
50.26000 151.972
50.43000 153.183
50.60000 157.656
50.77000 166.789
50.94000 157.083
51.11000 142.615
51.28000 143.747
51.45000 148.612
51.62000 147.552
51.79000 140.494
51.96000 133.965
52.13000 139.886
52.30000 136.125
52.47000 128.874
52.64000 144.745
52.81000 138.008
52.98000 148.880
53.15000 146.728
53.32000 125.363
53.49000 143.483
53.66000 144.516
53.83000 132.533
54.00000 134.775
54.17000 137.342
54.34000 128.596
54.51000 142.774
54.68000 138.224
54.85000 144.118
55.02000 145.166
55.19000 146.378
55.36000 158.776
55.53000 179.994
55.70000 239.531
55.87000 317.908
56.04000 317.197
56.21000 238.330
56.38000 184.710
56.55000 147.302
56.72000 141.374
56.89000 139.707
57.06000 138.757
57.23000 128.379
57.40000 132.483
57.57000 124.243
57.74000 119.896
57.91000 124.069
58.08000 128.383
58.25000 125.278
58.42000 122.439
58.59000 125.607
58.76000 121.825
58.93000 114.453
59.10000 116.037
59.27000 107.350
59.44000 115.925
59.61000 111.302
59.78000 110.023
59.95000 119.662
60.12000 111.267
60.29000 117.604
60.46000 120.091
60.63000 119.531
60.80000 125.262
60.97000 124.552
61.14000 121.554
61.31000 123.383
61.48000 125.540
61.65000 278.922
61.82000 190.966
61.99000 127.991
62.16000 128.107
62.33000 134.028
62.50000 136.669
62.67000 134.564
62.84000 128.744
63.01000 140.095
63.18000 138.736
63.35000 133.242
63.52000 136.229
63.69000 136.182
63.86000 144.587
64.03000 139.025
64.20000 155.554
64.37000 155.814
64.54000 165.658
64.71000 172.319
64.88000 191.326
65.05000 195.009
65.22000 203.380
65.39000 234.448
65.56000 306.173
65.73000 985.624
65.90000 1967.373
66.07000 503.528
66.24000 385.368
66.41000 639.282
66.58000 428.402
66.75000 377.953
66.92000 356.605
67.09000 374.919
67.26000 396.380
67.43000 419.963
67.60000 442.171
67.77000 478.087
67.94000 492.350
68.11000 510.410
68.28000 612.906
68.45000 657.443
68.62000 885.352
68.79000 1589.077
68.96000 8733.451
69.13000 44470.422
69.30000 24565.189
69.47000 6178.712
69.64000 909.928
69.81000 626.917
69.98000 509.913
70.00000 503.345

File: BTO_Mapping_Theta2Theta_07-10-2025_001_08_27-406_12-202.xy
20.00000 475.926
20.17000 467.501
20.34000 474.134
20.51000 463.599
20.68000 470.143
20.85000 456.602
21.02000 472.089
21.19000 460.783
21.36000 457.140
21.53000 472.980
21.70000 462.179
21.87000 457.569
22.04000 488.399
22.21000 477.815
22.38000 449.659
22.55000 435.688
22.72000 449.387
22.89000 432.078
23.06000 450.842
23.23000 438.930
23.40000 434.054
23.57000 446.696
23.74000 454.518
23.91000 515.890
24.08000 498.067
24.25000 445.156
24.42000 436.197
24.59000 411.770
24.76000 400.782
24.93000 413.348
25.10000 413.277
25.27000 401.115
25.44000 400.955
25.61000 387.462
25.78000 407.449
25.95000 398.389
26.12000 384.557
26.29000 405.356
26.46000 382.411
26.63000 379.385
26.80000 368.394
26.97000 373.937
27.14000 376.982
27.31000 384.251
27.48000 374.897
27.65000 373.509
27.82000 361.414
27.99000 356.281
28.16000 363.552
28.33000 350.970
28.50000 370.884
28.67000 350.500
28.84000 341.331
29.01000 350.090
29.18000 366.948
29.35000 336.368
29.52000 347.580
29.69000 358.369
29.86000 374.501
30.03000 378.866
30.20000 366.395
30.37000 367.540
30.54000 354.330
30.71000 385.291
30.88000 411.339
31.05000 472.929
31.22000 713.438
31.39000 922.240
31.56000 694.967
31.73000 461.592
31.90000 390.125
32.07000 367.657
32.24000 343.482
32.41000 321.579
32.58000 332.395
32.75000 319.870
32.92000 510.517
33.09000 432.315
33.26000 282.559
33.43000 286.416
33.60000 287.826
33.77000 294.774
33.94000 293.874
34.11000 323.777
34.28000 309.429
34.45000 301.056
34.62000 292.442
34.79000 296.544
34.96000 273.605
35.13000 276.568
35.30000 268.741
35.47000 266.623
35.64000 249.366
35.81000 255.554
35.98000 246.093
36.15000 247.233
36.32000 245.288
36.49000 262.457
36.66000 255.667
36.83000 261.001
37.00000 267.451
37.17000 260.039
37.34000 247.299
37.51000 243.621
37.68000 259.592
37.85000 257.526
38.02000 264.327
38.19000 253.715
38.36000 288.414
38.53000 407.344
38.70000 574.758
38.87000 414.852
39.04000 280.548
39.21000 255.072
39.38000 231.718
39.55000 220.133
39.72000 233.700
39.89000 241.520
40.06000 218.400
40.23000 222.100
40.40000 219.823
40.57000 219.057
40.74000 226.244
40.91000 212.941
41.08000 214.260
41.25000 206.507
41.42000 211.607
41.59000 207.588
41.76000 197.113
41.93000 216.611
42.10000 214.437
42.27000 207.158
42.44000 204.295
42.61000 204.633
42.78000 200.615
42.95000 202.839
43.12000 198.120
43.29000 199.444
43.46000 201.245
43.63000 192.482
43.80000 197.743
43.97000 200.640
44.14000 190.674
44.31000 184.341
44.48000 192.554
44.65000 204.116
44.82000 204.926
44.99000 213.370
45.16000 210.745
45.33000 210.467
45.50000 191.202
45.67000 185.516
45.84000 190.806
46.01000 181.178
46.18000 181.634
46.35000 173.686
46.52000 179.558
46.69000 178.422
46.86000 170.712
47.03000 163.544
47.20000 167.191
47.37000 160.674
47.54000 154.735
47.71000 163.921
47.88000 147.781
48.05000 173.215
48.22000 155.996
48.39000 164.021
48.56000 157.958
48.73000 160.765
48.90000 168.419
49.07000 156.185
49.24000 153.952
49.41000 148.687
49.58000 152.750
49.75000 150.844
49.92000 146.837
50.09000 167.598
50.26000 147.269
50.43000 161.003
50.60000 161.274
50.77000 164.320
50.94000 158.838
51.11000 153.428
51.28000 144.290
51.45000 145.566
51.62000 153.315
51.79000 139.231
51.96000 140.584
52.13000 138.756
52.30000 137.607
52.47000 144.178
52.64000 142.084
52.81000 136.765
52.98000 148.385
53.15000 142.863
53.32000 138.923
53.49000 136.295
53.66000 135.935
53.83000 135.696
54.00000 135.340
54.17000 134.713
54.34000 135.874
54.51000 123.822
54.68000 132.307
54.85000 138.577
55.02000 138.103
55.19000 145.997
55.36000 160.621
55.53000 177.629
55.70000 210.661
55.87000 259.723
56.04000 247.303
56.21000 210.633
56.38000 166.516
56.55000 149.419
56.72000 142.073
56.89000 131.319
57.06000 121.299
57.23000 130.551
57.40000 116.614
57.57000 124.937
57.74000 128.286
57.91000 119.757
58.08000 120.485
58.25000 119.185
58.42000 117.834
58.59000 119.048
58.76000 125.077
58.93000 135.790
59.10000 118.638
59.27000 115.169
59.44000 115.535
59.61000 120.594
59.78000 120.093
59.95000 122.151
60.12000 111.821
60.29000 112.809
60.46000 116.533
60.63000 113.057
60.80000 119.646
60.97000 118.937
61.14000 121.582
61.31000 126.427
61.48000 124.722
61.65000 283.167
61.82000 202.825
61.99000 130.136
62.16000 114.097
62.33000 131.402
62.50000 120.352
62.67000 137.525
62.84000 124.960
63.01000 137.973
63.18000 138.517
63.35000 132.418
63.52000 148.757
63.69000 139.480
63.86000 148.550
64.03000 147.861
64.20000 144.756
64.37000 154.704
64.54000 164.143
64.71000 179.174
64.88000 170.067
65.05000 181.607
65.22000 220.458
65.39000 247.503
65.56000 326.632
65.73000 958.369
65.90000 1995.957
66.07000 529.964
66.24000 393.892
66.41000 651.820
66.58000 452.001
66.75000 365.863
66.92000 362.808
67.09000 375.986
67.26000 409.797
67.43000 439.865
67.60000 439.219
67.77000 465.900
67.94000 491.397
68.11000 539.707
68.28000 568.933
68.45000 653.136
68.62000 918.967
68.79000 1606.286
68.96000 8418.887
69.13000 45054.055
69.30000 25282.850
69.47000 6502.053
69.64000 926.013
69.81000 611.597
69.98000 511.623
70.00000 504.880

File: BTO_Mapping_Theta2Theta_07-10-2025_001_09_36-542_16-269.xy
20.00000 475.443
20.17000 450.613
20.34000 472.750
20.51000 472.768
20.68000 482.712
20.85000 457.274
21.02000 460.215
21.19000 445.843
21.36000 451.651
21.53000 478.325
21.70000 444.467
21.87000 469.378
22.04000 502.604
22.21000 455.680
22.38000 469.685
22.55000 461.715
22.72000 455.812
22.89000 433.154
23.06000 454.602
23.23000 429.957
23.40000 454.341
23.57000 453.919
23.74000 456.259
23.91000 482.450
24.08000 474.830
24.25000 465.611
24.42000 416.004
24.59000 426.563
24.76000 419.791
24.93000 396.672
25.10000 398.235
25.27000 391.645
25.44000 404.918
25.61000 389.159
25.78000 389.785
25.95000 385.673
26.12000 392.990
26.29000 383.628
26.46000 390.240
26.63000 368.150
26.80000 377.769
26.97000 356.264
27.14000 363.750
27.31000 366.673
27.48000 369.467
27.65000 388.251
27.82000 366.120
27.99000 378.289
28.16000 360.101
28.33000 361.508
28.50000 361.307
28.67000 383.422
28.84000 376.396
29.01000 383.761
29.18000 362.121
29.35000 352.503
29.52000 367.574
29.69000 350.026
29.86000 365.036
30.03000 371.542
30.20000 373.625
30.37000 342.799
30.54000 360.461
30.71000 376.194
30.88000 395.942
31.05000 468.022
31.22000 669.496
31.39000 844.388
31.56000 669.218
31.73000 468.392
31.90000 414.611
32.07000 373.980
32.24000 350.666
32.41000 323.731
32.58000 337.275
32.75000 320.984
32.92000 517.862
33.09000 447.355
33.26000 302.535
33.43000 299.854
33.60000 298.811
33.77000 295.947
33.94000 303.286
34.11000 306.826
34.28000 298.222
34.45000 301.904
34.62000 288.350
34.79000 292.628
34.96000 287.496
35.13000 263.475
35.30000 286.898
35.47000 269.399
35.64000 261.328
35.81000 264.048
35.98000 254.958
36.15000 260.251
36.32000 264.483
36.49000 264.947
36.66000 253.072
36.83000 244.231
37.00000 266.062
37.17000 253.650
37.34000 250.549
37.51000 244.518
37.68000 250.469
37.85000 248.625
38.02000 248.566
38.19000 272.567
38.36000 274.673
38.53000 367.718
38.70000 466.881
38.87000 376.440
39.04000 261.272
39.21000 248.538
39.38000 255.005
39.55000 240.589
39.72000 241.244
39.89000 225.088
40.06000 216.521
40.23000 215.663
40.40000 211.013
40.57000 221.582
40.74000 221.781
40.91000 214.695
41.08000 207.917
41.25000 208.200
41.42000 205.147
41.59000 201.983
41.76000 197.340
41.93000 209.825
42.10000 203.069
42.27000 204.183
42.44000 222.488
42.61000 202.986
42.78000 199.489
42.95000 195.610
43.12000 182.560
43.29000 189.831
43.46000 196.050
43.63000 181.369
43.80000 201.514
43.97000 201.349
44.14000 193.103
44.31000 193.488
44.48000 196.736
44.65000 201.770
44.82000 209.829
44.99000 222.216
45.16000 212.027
45.33000 196.136
45.50000 212.988
45.67000 188.123
45.84000 190.350
46.01000 176.504
46.18000 176.303
46.35000 171.992
46.52000 179.147
46.69000 167.705
46.86000 172.346
47.03000 171.621
47.20000 160.674
47.37000 158.542
47.54000 163.096
47.71000 162.958
47.88000 153.790
48.05000 164.759
48.22000 160.923
48.39000 147.926
48.56000 160.596
48.73000 170.203
48.90000 164.319
49.07000 150.426
49.24000 157.130
49.41000 150.944
49.58000 156.581
49.75000 149.611
49.92000 162.093
50.09000 157.789
50.26000 154.922
50.43000 155.844
50.60000 166.811
50.77000 156.578
50.94000 161.391
51.11000 154.259
51.28000 154.797
51.45000 139.997
51.62000 144.032
51.79000 135.344
51.96000 142.421
52.13000 149.374
52.30000 139.045
52.47000 144.070
52.64000 133.738
52.81000 136.991
52.98000 132.796
53.15000 151.647
53.32000 142.698
53.49000 131.295
53.66000 140.955
53.83000 134.574
54.00000 130.618
54.17000 131.806
54.34000 139.945
54.51000 134.065
54.68000 135.476
54.85000 141.428
55.02000 138.155
55.19000 144.651
55.36000 145.920
55.53000 168.986
55.70000 188.994
55.87000 212.953
56.04000 213.522
56.21000 184.686
56.38000 153.430
56.55000 150.487
56.72000 136.682
56.89000 128.078
57.06000 130.950
57.23000 121.292
57.40000 123.785
57.57000 128.305
57.74000 117.870
57.91000 128.015
58.08000 116.140
58.25000 122.312
58.42000 116.992
58.59000 117.007
58.76000 118.872
58.93000 116.843
59.10000 115.890
59.27000 118.794
59.44000 111.256
59.61000 119.815
59.78000 112.912
59.95000 118.952
60.12000 112.836
60.29000 115.955
60.46000 120.971
60.63000 116.839
60.80000 121.311
60.97000 117.224
61.14000 124.618
61.31000 117.695
61.48000 142.262
61.65000 280.482
61.82000 207.049
61.99000 132.201
62.16000 125.886
62.33000 126.694
62.50000 130.617
62.67000 122.118
62.84000 132.674
63.01000 134.568
63.18000 132.042
63.35000 139.136
63.52000 131.108
63.69000 143.190
63.86000 146.504
64.03000 140.215
64.20000 149.561
64.37000 158.326
64.54000 153.787
64.71000 183.516
64.88000 173.433
65.05000 199.208
65.22000 214.545
65.39000 243.462
65.56000 308.930
65.73000 937.254
65.90000 2041.988
66.07000 546.755
66.24000 415.430
66.41000 661.983
66.58000 445.217
66.75000 369.498
66.92000 382.437
67.09000 381.472
67.26000 423.489
67.43000 434.971
67.60000 461.971
67.77000 475.365
67.94000 495.610
68.11000 555.200
68.28000 575.393
68.45000 688.191
68.62000 918.119
68.79000 1607.082
68.96000 7927.593
69.13000 45857.832
69.30000 26185.281
69.47000 7099.569
69.64000 951.284
69.81000 652.400
69.98000 516.859
70.00000 503.100

File: BTO_Mapping_Theta2Theta_07-10-2025_001_11_13-383_14-863.xy
20.00000 487.687
20.17000 453.505
20.34000 472.687
20.51000 468.371
20.68000 471.987
20.85000 464.901
21.02000 472.130
21.19000 458.643
21.36000 474.273
21.53000 445.464
21.70000 477.773
21.87000 477.578
22.04000 480.085
22.21000 490.206
22.38000 457.641
22.55000 444.826
22.72000 429.863
22.89000 453.779
23.06000 435.767
23.23000 437.411
23.40000 432.067
23.57000 456.242
23.74000 469.729
23.91000 493.339
24.08000 504.245
24.25000 443.602
24.42000 432.067
24.59000 430.887
24.76000 412.158
24.93000 392.887
25.10000 419.992
25.27000 400.849
25.44000 404.638
25.61000 387.101
25.78000 382.135
25.95000 376.794
26.12000 393.470
26.29000 387.145
26.46000 385.547
26.63000 380.152
26.80000 387.556
26.97000 375.523
27.14000 382.166
27.31000 389.527
27.48000 360.159
27.65000 370.188
27.82000 365.485
27.99000 364.899
28.16000 359.775
28.33000 368.734
28.50000 359.565
28.67000 357.988
28.84000 366.966
29.01000 376.438
29.18000 340.175
29.35000 357.670
29.52000 352.134
29.69000 372.704
29.86000 362.573
30.03000 376.635
30.20000 354.621
30.37000 367.838
30.54000 371.411
30.71000 375.393
30.88000 396.970
31.05000 490.709
31.22000 766.848
31.39000 1009.462
31.56000 743.180
31.73000 477.416
31.90000 388.953
32.07000 362.409
32.24000 317.776
32.41000 338.636
32.58000 320.389
32.75000 320.164
32.92000 488.703
33.09000 451.544
33.26000 300.823
33.43000 301.903
33.60000 287.235
33.77000 285.296
33.94000 299.035
34.11000 306.117
34.28000 324.855
34.45000 303.337
34.62000 300.429
34.79000 290.143
34.96000 263.565
35.13000 283.410
35.30000 250.997
35.47000 262.571
35.64000 272.497
35.81000 257.296
35.98000 257.023
36.15000 250.561
36.32000 258.114
36.49000 250.079
36.66000 261.162
36.83000 271.385
37.00000 265.221
37.17000 264.449
37.34000 248.960
37.51000 262.685
37.68000 245.306
37.85000 247.301
38.02000 256.483
38.19000 254.640
38.36000 294.252
38.53000 456.495
38.70000 685.518
38.87000 514.678
39.04000 282.197
39.21000 234.111
39.38000 233.621
39.55000 234.967
39.72000 226.920
39.89000 231.978
40.06000 226.250
40.23000 222.963
40.40000 211.167
40.57000 211.157
40.74000 221.177
40.91000 204.659
41.08000 201.047
41.25000 206.232
41.42000 210.954
41.59000 209.763
41.76000 207.822
41.93000 209.795
42.10000 224.786
42.27000 227.964
42.44000 213.288
42.61000 227.364
42.78000 200.479
42.95000 203.973
43.12000 195.062
43.29000 195.206
43.46000 194.555
43.63000 185.641
43.80000 193.114
43.97000 195.424
44.14000 191.108
44.31000 191.619
44.48000 203.309
44.65000 214.405
44.82000 209.185
44.99000 224.211
45.16000 226.420
45.33000 215.694
45.50000 209.892
45.67000 183.411
45.84000 191.854
46.01000 173.236
46.18000 174.493
46.35000 171.879
46.52000 172.152
46.69000 168.868
46.86000 175.247
47.03000 155.676
47.20000 167.360
47.37000 167.122
47.54000 169.566
47.71000 146.141
47.88000 168.127
48.05000 158.218
48.22000 160.963
48.39000 147.068
48.56000 158.991
48.73000 159.325
48.90000 154.601
49.07000 167.075
49.24000 150.835
49.41000 152.759
49.58000 161.258
49.75000 152.726
49.92000 162.525
50.09000 153.298
50.26000 158.910
50.43000 158.251
50.60000 168.102
50.77000 168.688
50.94000 150.150
51.11000 157.310
51.28000 148.017
51.45000 146.126
51.62000 143.824
51.79000 145.195
51.96000 137.778
52.13000 140.167
52.30000 138.414
52.47000 143.099
52.64000 155.214
52.81000 139.883
52.98000 134.636
53.15000 148.285
53.32000 152.590
53.49000 143.294
53.66000 144.120
53.83000 151.162
54.00000 145.859
54.17000 135.275
54.34000 139.475
54.51000 141.883
54.68000 137.721
54.85000 134.965
55.02000 141.264
55.19000 143.974
55.36000 165.273
55.53000 201.618
55.70000 242.879
55.87000 339.893
56.04000 336.795
56.21000 261.458
56.38000 179.517
56.55000 154.487
56.72000 137.241
56.89000 126.074
57.06000 130.131
57.23000 126.621
57.40000 131.470
57.57000 126.206
57.74000 130.013
57.91000 113.322
58.08000 123.912
58.25000 127.593
58.42000 113.341
58.59000 133.532
58.76000 130.516
58.93000 121.510
59.10000 122.287
59.27000 115.223
59.44000 114.840
59.61000 117.624
59.78000 116.519
59.95000 119.236
60.12000 115.805
60.29000 126.916
60.46000 116.572
60.63000 124.978
60.80000 117.147
60.97000 122.298
61.14000 123.871
61.31000 123.093
61.48000 133.783
61.65000 284.456
61.82000 195.658
61.99000 136.323
62.16000 125.847
62.33000 126.955
62.50000 126.558
62.67000 129.002
62.84000 131.301
63.01000 124.607
63.18000 137.948
63.35000 135.172
63.52000 148.866
63.69000 146.647
63.86000 142.384
64.03000 149.796
64.20000 136.097
64.37000 158.655
64.54000 161.983
64.71000 176.018
64.88000 180.968
65.05000 195.682
65.22000 213.324
65.39000 255.515
65.56000 302.733
65.73000 1007.217
65.90000 1981.183
66.07000 517.048
66.24000 397.096
66.41000 637.826
66.58000 427.890
66.75000 342.440
66.92000 374.531
67.09000 383.527
67.26000 404.789
67.43000 418.107
67.60000 426.569
67.77000 450.855
67.94000 502.901
68.11000 532.954
68.28000 576.776
68.45000 659.104
68.62000 908.285
68.79000 1597.944
68.96000 8751.393
69.13000 44371.758
69.30000 24393.441
69.47000 6141.018
69.64000 940.192
69.81000 628.860
69.98000 498.269
70.00000 501.463

File: BTO_Mapping_Theta2Theta_07-10-2025_001_12_20-074_22-294.xy
20.00000 480.650
20.17000 475.505
20.34000 466.663
20.51000 462.006
20.68000 477.981
20.85000 459.888
21.02000 470.752
21.19000 451.722
21.36000 466.651
21.53000 478.602
21.70000 463.560
21.87000 483.466
22.04000 498.311
22.21000 488.699
22.38000 476.695
22.55000 456.602
22.72000 445.122
22.89000 427.997
23.06000 400.367
23.23000 447.394
23.40000 451.049
23.57000 442.238
23.74000 450.532
23.91000 481.608
24.08000 499.525
24.25000 467.661
24.42000 410.963
24.59000 427.146
24.76000 408.374
24.93000 404.353
25.10000 398.744
25.27000 398.674
25.44000 404.196
25.61000 394.515
25.78000 398.433
25.95000 389.390
26.12000 414.687
26.29000 378.159
26.46000 381.126
26.63000 375.614
26.80000 399.539
26.97000 391.797
27.14000 364.155
27.31000 378.629
27.48000 374.811
27.65000 391.784
27.82000 360.261
27.99000 369.519
28.16000 365.530
28.33000 353.042
28.50000 369.867
28.67000 352.721
28.84000 364.610
29.01000 362.305
29.18000 354.592
29.35000 356.789
29.52000 359.567
29.69000 345.281
29.86000 367.070
30.03000 382.862
30.20000 371.432
30.37000 372.487
30.54000 369.687
30.71000 376.690
30.88000 392.575
31.05000 488.133
31.22000 721.031
31.39000 961.320
31.56000 715.270
31.73000 461.147
31.90000 393.246
32.07000 358.953
32.24000 347.290
32.41000 335.080
32.58000 323.040
32.75000 331.568
32.92000 496.543
33.09000 450.128
33.26000 305.310
33.43000 288.135
33.60000 293.584
33.77000 292.281
33.94000 304.398
34.11000 307.314
34.28000 323.800
34.45000 307.011
34.62000 276.342
34.79000 277.326
34.96000 272.481
35.13000 273.820
35.30000 266.941
35.47000 262.167
35.64000 256.606
35.81000 254.879
35.98000 268.842
36.15000 267.818
36.32000 257.686
36.49000 254.560
36.66000 256.978
36.83000 254.205
37.00000 274.602
37.17000 257.336
37.34000 253.157
37.51000 252.856
37.68000 246.866
37.85000 259.018
38.02000 270.342
38.19000 255.755
38.36000 277.762
38.53000 427.960
38.70000 609.631
38.87000 423.915
39.04000 280.065
39.21000 228.407
39.38000 244.160
39.55000 238.016
39.72000 228.055
39.89000 225.371
40.06000 213.517
40.23000 220.374
40.40000 227.783
40.57000 220.555
40.74000 216.880
40.91000 220.372
41.08000 213.297
41.25000 211.665
41.42000 209.566
41.59000 209.657
41.76000 208.611
41.93000 206.949
42.10000 207.239
42.27000 223.836
42.44000 214.515
42.61000 199.543
42.78000 205.343
42.95000 195.885
43.12000 190.250
43.29000 201.789
43.46000 199.437
43.63000 197.994
43.80000 201.420
43.97000 196.011
44.14000 183.839
44.31000 194.806
44.48000 209.204
44.65000 205.412
44.82000 205.088
44.99000 216.898
45.16000 203.550
45.33000 191.995
45.50000 189.014
45.67000 179.193
45.84000 172.849
46.01000 179.310
46.18000 174.853
46.35000 169.416
46.52000 183.605
46.69000 179.097
46.86000 171.490
47.03000 175.768
47.20000 170.638
47.37000 161.649
47.54000 165.127
47.71000 155.967
47.88000 158.795
48.05000 166.764
48.22000 155.730
48.39000 153.282
48.56000 164.248
48.73000 172.986
48.90000 153.182
49.07000 147.889
49.24000 147.764
49.41000 152.890
49.58000 150.668
49.75000 152.999
49.92000 150.221
50.09000 153.855
50.26000 142.618
50.43000 146.268
50.60000 165.617
50.77000 162.315
50.94000 163.702
51.11000 154.345
51.28000 151.078
51.45000 148.900
51.62000 148.977
51.79000 138.437
51.96000 140.796
52.13000 141.499
52.30000 140.033
52.47000 140.192
52.64000 141.806
52.81000 133.258
52.98000 131.968
53.15000 141.106
53.32000 137.270
53.49000 143.548
53.66000 140.391
53.83000 146.105
54.00000 138.563
54.17000 136.988
54.34000 145.286
54.51000 130.408
54.68000 132.768
54.85000 137.153
55.02000 140.407
55.19000 152.532
55.36000 155.923
55.53000 169.192
55.70000 207.934
55.87000 263.703
56.04000 269.358
56.21000 218.810
56.38000 177.930
56.55000 147.034
56.72000 140.780
56.89000 128.373
57.06000 129.822
57.23000 125.783
57.40000 133.003
57.57000 130.238
57.74000 130.791
57.91000 118.543
58.08000 119.635
58.25000 120.932
58.42000 124.039
58.59000 119.237
58.76000 123.266
58.93000 114.637
59.10000 117.429
59.27000 133.390
59.44000 116.917
59.61000 113.945
59.78000 118.723
59.95000 118.996
60.12000 109.948
60.29000 115.353
60.46000 120.640
60.63000 117.241
60.80000 122.904
60.97000 117.527
61.14000 130.078
61.31000 124.454
61.48000 143.167
61.65000 288.642
61.82000 203.400
61.99000 124.026
62.16000 115.584
62.33000 133.873
62.50000 130.344
62.67000 133.532
62.84000 134.988
63.01000 137.056
63.18000 134.439
63.35000 142.998
63.52000 130.961
63.69000 142.335
63.86000 146.278
64.03000 157.987
64.20000 148.652
64.37000 154.548
64.54000 153.493
64.71000 170.965
64.88000 188.651
65.05000 198.154
65.22000 206.152
65.39000 242.542
65.56000 304.391
65.73000 989.720
65.90000 1977.122
66.07000 510.630
66.24000 415.730
66.41000 650.222
66.58000 422.490
66.75000 368.072
66.92000 360.202
67.09000 383.022
67.26000 394.743
67.43000 432.436
67.60000 431.774
67.77000 474.724
67.94000 515.431
68.11000 506.921
68.28000 588.924
68.45000 694.262
68.62000 924.937
68.79000 1603.518
68.96000 8739.784
69.13000 45145.160
69.30000 24977.332
69.47000 6301.443
69.64000 929.184
69.81000 640.262
69.98000 505.679
70.00000 493.807