Folder: Master-Thesis/XRD/XRD/24-09-2025 Dep 3/XY Data (part 2)

File: BTO_Mapping_Theta2Theta_24-09-2025_001_09_36-542_16-269.xy
20.00000 574.439
20.17000 569.250
20.34000 559.296
20.51000 561.161
20.68000 543.650
20.85000 557.166
21.02000 550.614
21.19000 564.076
21.36000 560.368
21.53000 549.052
21.70000 536.279
21.87000 575.252
22.04000 588.631
22.21000 586.728
22.38000 558.833
22.55000 543.244
22.72000 524.092
22.89000 521.500
23.06000 531.186
23.23000 518.364
23.40000 504.852
23.57000 514.576
23.74000 540.988
23.91000 560.316
24.08000 562.434
24.25000 527.345
24.42000 510.102
24.59000 479.413
24.76000 505.272
24.93000 454.227
25.10000 480.995
25.27000 473.204
25.44000 461.856
25.61000 482.353
25.78000 472.374
25.95000 479.266
26.12000 464.518
26.29000 474.172
26.46000 450.629
26.63000 462.185
26.80000 442.520
26.97000 448.197
27.14000 450.909
27.31000 451.211
27.48000 445.775
27.65000 448.457
27.82000 422.495
27.99000 420.563
28.16000 429.399
28.33000 433.923
28.50000 431.669
28.67000 425.606
28.84000 425.704
29.01000 419.801
29.18000 428.778
29.35000 408.739
29.52000 413.428
29.69000 401.961
29.86000 408.567
30.03000 411.032
30.20000 439.692
30.37000 408.750
30.54000 419.179
30.71000 427.418
30.88000 463.239
31.05000 536.356
31.22000 802.891
31.39000 1175.582
31.56000 871.699
31.73000 537.163
31.90000 462.995
32.07000 422.761
32.24000 414.627
32.41000 395.865
32.58000 385.921
32.75000 382.885
32.92000 454.772
33.09000 413.497
33.26000 352.168
33.43000 353.542
33.60000 344.278
33.77000 359.878
33.94000 350.823
34.11000 361.054
34.28000 365.136
34.45000 371.535
34.62000 349.354
34.79000 325.307
34.96000 323.879
35.13000 304.781
35.30000 326.719
35.47000 325.021
35.64000 308.498
35.81000 303.845
35.98000 314.427
36.15000 300.717
36.32000 280.646
36.49000 314.276
36.66000 278.239
36.83000 296.261
37.00000 297.736
37.17000 282.537
37.34000 283.321
37.51000 297.119
37.68000 290.566
37.85000 302.997
38.02000 310.564
38.19000 327.767
38.36000 378.274
38.53000 610.677
38.70000 1048.141
38.87000 741.490
39.04000 401.583
39.21000 311.597
39.38000 287.194
39.55000 267.555
39.72000 284.048
39.89000 271.178
40.06000 278.750
40.23000 269.567
40.40000 250.844
40.57000 242.706
40.74000 258.583
40.91000 249.107
41.08000 248.157
41.25000 242.723
41.42000 248.837
41.59000 245.984
41.76000 257.441
41.93000 238.158
42.10000 247.972
42.27000 241.776
42.44000 243.624
42.61000 243.514
42.78000 237.568
42.95000 235.050
43.12000 221.209
43.29000 219.768
43.46000 211.959
43.63000 223.150
43.80000 223.152
43.97000 220.455
44.14000 224.434
44.31000 232.614
44.48000 243.351
44.65000 240.241
44.82000 262.636
44.99000 273.736
45.16000 266.965
45.33000 240.964
45.50000 243.323
45.67000 228.813
45.84000 219.773
46.01000 210.452
46.18000 199.076
46.35000 195.180
46.52000 205.397
46.69000 198.854
46.86000 201.616
47.03000 200.798
47.20000 197.948
47.37000 187.226
47.54000 185.792
47.71000 179.014
47.88000 201.775
48.05000 181.537
48.22000 189.230
48.39000 198.568
48.56000 185.135
48.73000 173.135
48.90000 188.226
49.07000 188.039
49.24000 185.018
49.41000 178.940
49.58000 178.113
49.75000 177.516
49.92000 179.475
50.09000 170.173
50.26000 185.624
50.43000 189.747
50.60000 185.839
50.77000 188.088
50.94000 175.814
51.11000 177.222
51.28000 170.229
51.45000 166.614
51.62000 161.767
51.79000 165.982
51.96000 166.198
52.13000 165.684
52.30000 173.363
52.47000 155.766
52.64000 153.295
52.81000 168.334
52.98000 156.350
53.15000 158.166
53.32000 171.829
53.49000 166.497
53.66000 152.850
53.83000 156.935
54.00000 166.988
54.17000 165.605
54.34000 173.276
54.51000 160.765
54.68000 155.285
54.85000 152.756
55.02000 170.718
55.19000 173.518
55.36000 190.626
55.53000 222.463
55.70000 325.170
55.87000 464.728
56.04000 480.258
56.21000 339.649
56.38000 225.701
56.55000 176.267
56.72000 168.799
56.89000 149.223
57.06000 155.757
57.23000 149.086
57.40000 153.187
57.57000 150.824
57.74000 142.357
57.91000 145.797
58.08000 137.873
58.25000 140.467
58.42000 141.087
58.59000 138.579
58.76000 135.196
58.93000 138.105
59.10000 131.531
59.27000 137.652
59.44000 134.051
59.61000 132.568
59.78000 139.290
59.95000 148.060
60.12000 134.472
60.29000 132.353
60.46000 134.663
60.63000 132.119
60.80000 133.592
60.97000 132.778
61.14000 127.470
61.31000 150.798
61.48000 148.450
61.65000 257.761
61.82000 209.497
61.99000 133.998
62.16000 138.275
62.33000 134.466
62.50000 145.508
62.67000 147.024
62.84000 140.839
63.01000 134.157
63.18000 151.964
63.35000 150.854
63.52000 149.324
63.69000 155.310
63.86000 158.414
64.03000 149.414
64.20000 155.709
64.37000 155.868
64.54000 163.635
64.71000 171.731
64.88000 170.660
65.05000 189.903
65.22000 207.793
65.39000 225.150
65.56000 270.956
65.73000 542.156
65.90000 1055.030
66.07000 369.557
66.24000 294.767
66.41000 437.881
66.58000 353.327
66.75000 311.273
66.92000 344.291
67.09000 341.330
67.26000 382.008
67.43000 403.005
67.60000 409.022
67.77000 458.732
67.94000 510.072
68.11000 545.091
68.28000 592.946
68.45000 712.983
68.62000 952.283
68.79000 1740.426
68.96000 9492.128
69.13000 52986.641
69.30000 32158.229
69.47000 8569.539
69.64000 1198.046
69.81000 817.510
69.98000 658.266
70.00000 653.294

File: BTO_Mapping_Theta2Theta_24-09-2025_001_10_6-691_7-431.xy
20.00000 580.932
20.17000 556.789
20.34000 559.195
20.51000 559.425
20.68000 555.750
20.85000 559.417
21.02000 540.108
21.19000 534.023
21.36000 526.395
21.53000 548.183
21.70000 527.354
21.87000 559.786
22.04000 618.925
22.21000 606.941
22.38000 593.323
22.55000 531.496
22.72000 509.636
22.89000 495.188
23.06000 501.069
23.23000 501.703
23.40000 499.791
23.57000 506.805
23.74000 499.738
23.91000 495.896
24.08000 494.632
24.25000 492.159
24.42000 495.532
24.59000 480.673
24.76000 474.883
24.93000 493.071
25.10000 477.923
25.27000 480.679
25.44000 467.071
25.61000 472.858
25.78000 451.285
25.95000 462.229
26.12000 456.087
26.29000 469.763
26.46000 445.696
26.63000 464.481
26.80000 435.781
26.97000 444.428
27.14000 447.048
27.31000 436.492
27.48000 430.945
27.65000 427.055
27.82000 432.436
27.99000 429.758
28.16000 416.178
28.33000 435.881
28.50000 437.368
28.67000 404.654
28.84000 435.426
29.01000 413.133
29.18000 413.647
29.35000 420.276
29.52000 420.445
29.69000 423.208
29.86000 441.535
30.03000 411.752
30.20000 431.744
30.37000 416.657
30.54000 404.963
30.71000 428.486
30.88000 459.472
31.05000 568.644
31.22000 1232.425
31.39000 2286.440
31.56000 1538.334
31.73000 673.040
31.90000 452.495
32.07000 419.145
32.24000 408.138
32.41000 382.342
32.58000 391.195
32.75000 378.066
32.92000 464.638
33.09000 380.982
33.26000 338.585
33.43000 339.863
33.60000 336.713
33.77000 320.860
33.94000 345.169
34.11000 330.009
34.28000 321.320
34.45000 327.710
34.62000 309.627
34.79000 311.959
34.96000 327.597
35.13000 309.817
35.30000 308.514
35.47000 292.013
35.64000 313.749
35.81000 308.138
35.98000 298.267
36.15000 300.617
36.32000 306.200
36.49000 300.531
36.66000 289.332
36.83000 294.170
37.00000 306.499
37.17000 309.824
37.34000 308.665
37.51000 295.673
37.68000 274.198
37.85000 289.807
38.02000 296.162
38.19000 299.486
38.36000 346.776
38.53000 690.911
38.70000 1543.763
38.87000 1153.538
39.04000 439.323
39.21000 293.430
39.38000 277.314
39.55000 287.187
39.72000 268.997
39.89000 265.296
40.06000 241.505
40.23000 259.802
40.40000 255.557
40.57000 264.813
40.74000 249.174
40.91000 250.463
41.08000 249.739
41.25000 250.863
41.42000 248.408
41.59000 253.005
41.76000 234.898
41.93000 225.698
42.10000 234.754
42.27000 242.831
42.44000 224.536
42.61000 233.691
42.78000 232.121
42.95000 222.353
43.12000 212.675
43.29000 230.083
43.46000 212.354
43.63000 214.940
43.80000 228.551
43.97000 224.395
44.14000 225.100
44.31000 216.397
44.48000 219.435
44.65000 230.996
44.82000 241.423
44.99000 275.682
45.16000 291.768
45.33000 279.595
45.50000 247.008
45.67000 252.190
45.84000 228.094
46.01000 230.630
46.18000 202.727
46.35000 208.523
46.52000 204.149
46.69000 203.926
46.86000 185.943
47.03000 197.214
47.20000 197.374
47.37000 194.633
47.54000 195.267
47.71000 186.322
47.88000 182.633
48.05000 188.583
48.22000 179.583
48.39000 172.470
48.56000 181.770
48.73000 184.676
48.90000 180.704
49.07000 180.375
49.24000 168.767
49.41000 169.350
49.58000 181.938
49.75000 182.030
49.92000 168.818
50.09000 181.251
50.26000 173.861
50.43000 191.410
50.60000 209.550
50.77000 210.765
50.94000 202.166
51.11000 177.998
51.28000 182.452
51.45000 170.439
51.62000 165.386
51.79000 163.159
51.96000 166.076
52.13000 163.805
52.30000 162.202
52.47000 156.427
52.64000 146.902
52.81000 164.505
52.98000 159.169
53.15000 161.075
53.32000 170.613
53.49000 165.899
53.66000 171.949
53.83000 147.217
54.00000 162.077
54.17000 165.312
54.34000 155.286
54.51000 157.880
54.68000 156.496
54.85000 156.661
55.02000 162.576
55.19000 166.984
55.36000 180.911
55.53000 227.967
55.70000 383.102
55.87000 759.540
56.04000 879.789
56.21000 559.056
56.38000 286.632
56.55000 191.836
56.72000 163.308
56.89000 143.493
57.06000 148.041
57.23000 158.459
57.40000 141.499
57.57000 148.662
57.74000 160.048
57.91000 142.265
58.08000 133.505
58.25000 130.070
58.42000 140.850
58.59000 131.088
58.76000 135.897
58.93000 141.003
59.10000 133.875
59.27000 135.347
59.44000 133.809
59.61000 136.377
59.78000 138.845
59.95000 131.046
60.12000 139.057
60.29000 127.215
60.46000 133.930
60.63000 131.214
60.80000 127.562
60.97000 130.191
61.14000 126.147
61.31000 126.890
61.48000 145.140
61.65000 250.486
61.82000 189.516
61.99000 139.824
62.16000 137.580
62.33000 139.202
62.50000 138.677
62.67000 141.600
62.84000 134.500
63.01000 134.907
63.18000 136.150
63.35000 146.819
63.52000 144.654
63.69000 151.983
63.86000 154.558
64.03000 142.225
64.20000 156.579
64.37000 160.947
64.54000 167.901
64.71000 178.192
64.88000 174.598
65.05000 182.996
65.22000 222.116
65.39000 278.407
65.56000 321.364
65.73000 615.418
65.90000 1078.870
66.07000 396.110
66.24000 299.940
66.41000 420.747
66.58000 339.225
66.75000 306.293
66.92000 331.009
67.09000 343.043
67.26000 349.342
67.43000 386.659
67.60000 412.459
67.77000 460.180
67.94000 484.924
68.11000 516.859
68.28000 575.659
68.45000 658.447
68.62000 976.646
68.79000 1753.048
68.96000 11129.644
69.13000 51802.125
69.30000 30653.496
69.47000 7324.199
69.64000 1145.024
69.81000 789.062
69.98000 638.709
70.00000 627.781

File: BTO_Mapping_Theta2Theta_24-09-2025_001_12_20-074_22-294.xy
20.00000 571.493
20.17000 550.673
20.34000 588.228
20.51000 561.411
20.68000 552.205
20.85000 543.818
21.02000 548.623
21.19000 549.839
21.36000 525.477
21.53000 527.620
21.70000 547.895
21.87000 549.318
22.04000 614.627
22.21000 602.755
22.38000 576.333
22.55000 518.741
22.72000 525.380
22.89000 521.668
23.06000 509.271
23.23000 485.181
23.40000 525.474
23.57000 498.770
23.74000 501.055
23.91000 502.651
24.08000 508.253
24.25000 490.964
24.42000 492.950
24.59000 483.968
24.76000 489.019
24.93000 478.517
25.10000 488.851
25.27000 461.758
25.44000 467.846
25.61000 453.277
25.78000 464.249
25.95000 457.565
26.12000 445.783
26.29000 471.598
26.46000 446.729
26.63000 468.382
26.80000 426.171
26.97000 428.372
27.14000 448.726
27.31000 453.466
27.48000 414.420
27.65000 421.772
27.82000 412.448
27.99000 434.004
28.16000 431.177
28.33000 427.013
28.50000 421.901
28.67000 401.827
28.84000 428.497
29.01000 424.615
29.18000 426.259
29.35000 412.823
29.52000 410.774
29.69000 407.495
29.86000 397.724
30.03000 420.983
30.20000 416.547
30.37000 410.305
30.54000 401.142
30.71000 419.600
30.88000 422.111
31.05000 513.182
31.22000 919.076
31.39000 1510.789
31.56000 1110.738
31.73000 630.020
31.90000 450.294
32.07000 419.205
32.24000 383.834
32.41000 393.671
32.58000 391.227
32.75000 369.150
32.92000 430.414
33.09000 397.567
33.26000 330.374
33.43000 357.752
33.60000 320.475
33.77000 343.428
33.94000 337.102
34.11000 329.580
34.28000 323.459
34.45000 325.788
34.62000 352.251
34.79000 326.978
34.96000 321.193
35.13000 304.512
35.30000 311.551
35.47000 300.934
35.64000 312.880
35.81000 313.244
35.98000 302.904
36.15000 302.817
36.32000 291.614
36.49000 294.284
36.66000 279.167
36.83000 304.993
37.00000 306.509
37.17000 306.745
37.34000 291.476
37.51000 301.011
37.68000 298.523
37.85000 297.779
38.02000 308.336
38.19000 305.062
38.36000 326.652
38.53000 577.778
38.70000 1300.557
38.87000 1158.406
39.04000 452.842
39.21000 298.364
39.38000 275.715
39.55000 286.719
39.72000 271.250
39.89000 275.936
40.06000 268.500
40.23000 248.927
40.40000 249.957
40.57000 260.144
40.74000 250.186
40.91000 260.506
41.08000 246.008
41.25000 247.589
41.42000 259.766
41.59000 231.175
41.76000 238.144
41.93000 227.559
42.10000 221.362
42.27000 240.407
42.44000 224.795
42.61000 228.969
42.78000 249.152
42.95000 234.583
43.12000 235.158
43.29000 220.863
43.46000 223.939
43.63000 220.974
43.80000 210.958
43.97000 221.429
44.14000 221.051
44.31000 221.960
44.48000 219.241
44.65000 222.516
44.82000 236.389
44.99000 263.415
45.16000 283.118
45.33000 256.910
45.50000 244.897
45.67000 227.489
45.84000 208.518
46.01000 212.145
46.18000 210.733
46.35000 220.786
46.52000 213.557
46.69000 189.346
46.86000 201.170
47.03000 202.331
47.20000 191.540
47.37000 187.428
47.54000 200.404
47.71000 192.164
47.88000 193.596
48.05000 182.665
48.22000 187.340
48.39000 191.306
48.56000 175.089
48.73000 170.487
48.90000 175.493
49.07000 187.271
49.24000 183.065
49.41000 173.230
49.58000 177.242
49.75000 179.454
49.92000 165.488
50.09000 183.540
50.26000 172.776
50.43000 181.516
50.60000 184.466
50.77000 187.245
50.94000 191.324
51.11000 180.937
51.28000 194.250
51.45000 168.178
51.62000 159.770
51.79000 172.190
51.96000 165.621
52.13000 159.049
52.30000 158.901
52.47000 156.198
52.64000 163.732
52.81000 157.234
52.98000 153.430
53.15000 170.764
53.32000 158.300
53.49000 170.518
53.66000 153.828
53.83000 159.769
54.00000 149.524
54.17000 154.411
54.34000 168.576
54.51000 159.953
54.68000 151.674
54.85000 155.379
55.02000 159.535
55.19000 164.043
55.36000 181.102
55.53000 208.620
55.70000 333.921
55.87000 621.378
56.04000 803.791
56.21000 522.439
56.38000 294.476
56.55000 180.352
56.72000 166.546
56.89000 148.721
57.06000 144.037
57.23000 142.004
57.40000 143.239
57.57000 149.738
57.74000 139.696
57.91000 147.844
58.08000 140.842
58.25000 135.960
58.42000 138.978
58.59000 142.547
58.76000 133.544
58.93000 137.717
59.10000 127.511
59.27000 125.791
59.44000 142.057
59.61000 126.546
59.78000 128.694
59.95000 148.113
60.12000 132.552
60.29000 131.702
60.46000 136.595
60.63000 130.956
60.80000 136.547
60.97000 128.695
61.14000 142.689
61.31000 127.461
61.48000 134.370
61.65000 263.199
61.82000 194.699
61.99000 145.912
62.16000 144.559
62.33000 135.275
62.50000 142.734
62.67000 146.715
62.84000 142.642
63.01000 147.064
63.18000 137.104
63.35000 148.915
63.52000 151.133
63.69000 148.136
63.86000 146.655
64.03000 161.528
64.20000 162.448
64.37000 155.420
64.54000 166.539
64.71000 166.322
64.88000 170.338
65.05000 187.065
65.22000 207.092
65.39000 240.864
65.56000 286.793
65.73000 566.896
65.90000 1030.854
66.07000 376.877
66.24000 301.135
66.41000 423.370
66.58000 331.192
66.75000 314.721
66.92000 319.421
67.09000 336.489
67.26000 376.340
67.43000 391.305
67.60000 408.859
67.77000 440.087
67.94000 496.859
68.11000 549.125
68.28000 575.232
68.45000 666.174
68.62000 938.180
68.79000 1703.466
68.96000 9667.711
69.13000 50165.430
69.30000 30020.605
69.47000 7673.775
69.64000 1174.364
69.81000 781.079
69.98000 625.185
70.00000 630.320

File: BTO_Mapping_Theta2Theta_24-09-2025_001_13_26-765_29-726.xy
20.00000 576.740
20.17000 570.387
20.34000 558.116
20.51000 551.792
20.68000 548.922
20.85000 540.299
21.02000 544.016
21.19000 533.598
21.36000 538.667
21.53000 553.832
21.70000 571.242
21.87000 565.445
22.04000 586.863
22.21000 607.539
22.38000 569.661
22.55000 540.070
22.72000 518.984
22.89000 517.266
23.06000 506.661
23.23000 528.528
23.40000 510.099
23.57000 518.927
23.74000 523.790
23.91000 540.436
24.08000 527.388
24.25000 492.015
24.42000 504.895
24.59000 488.306
24.76000 484.942
24.93000 476.359
25.10000 469.100
25.27000 480.134
25.44000 465.607
25.61000 471.855
25.78000 478.665
25.95000 463.410
26.12000 459.073
26.29000 457.774
26.46000 453.451
26.63000 466.965
26.80000 439.861
26.97000 440.755
27.14000 464.328
27.31000 452.842
27.48000 435.814
27.65000 434.562
27.82000 432.358
27.99000 435.656
28.16000 414.771
28.33000 433.502
28.50000 416.466
28.67000 428.534
28.84000 420.375
29.01000 412.064
29.18000 419.601
29.35000 415.385
29.52000 407.885
29.69000 401.277
29.86000 410.252
30.03000 451.465
30.20000 423.167
30.37000 415.382
30.54000 428.257
30.71000 420.318
30.88000 439.478
31.05000 549.740
31.22000 848.441
31.39000 1283.883
31.56000 1026.366
31.73000 598.530
31.90000 453.853
32.07000 417.262
32.24000 405.910
32.41000 409.215
32.58000 384.052
32.75000 351.028
32.92000 460.180
33.09000 422.504
33.26000 343.782
33.43000 346.768
33.60000 353.908
33.77000 340.821
33.94000 336.935
34.11000 339.120
34.28000 363.402
34.45000 341.522
34.62000 346.658
34.79000 327.096
34.96000 323.106
35.13000 310.038
35.30000 307.972
35.47000 314.721
35.64000 310.637
35.81000 315.139
35.98000 301.175
36.15000 306.487
36.32000 292.975
36.49000 315.163
36.66000 284.526
36.83000 290.347
37.00000 309.592
37.17000 307.207
37.34000 311.094
37.51000 293.094
37.68000 288.511
37.85000 294.632
38.02000 304.480
38.19000 310.391
38.36000 351.125
38.53000 582.713
38.70000 1181.208
38.87000 975.739
39.04000 416.716
39.21000 292.146
39.38000 287.067
39.55000 283.195
39.72000 267.183
39.89000 258.576
40.06000 258.593
40.23000 254.873
40.40000 248.869
40.57000 261.270
40.74000 263.362
40.91000 265.655
41.08000 255.819
41.25000 248.971
41.42000 242.633
41.59000 234.460
41.76000 233.004
41.93000 249.823
42.10000 247.217
42.27000 251.415
42.44000 242.073
42.61000 224.322
42.78000 235.945
42.95000 230.616
43.12000 230.831
43.29000 235.623
43.46000 227.743
43.63000 223.841
43.80000 213.689
43.97000 222.452
44.14000 222.625
44.31000 219.531
44.48000 228.792
44.65000 245.220
44.82000 252.884
44.99000 252.547
45.16000 265.042
45.33000 251.155
45.50000 240.767
45.67000 217.161
45.84000 204.690
46.01000 207.399
46.18000 213.514
46.35000 211.420
46.52000 197.224
46.69000 204.822
46.86000 203.065
47.03000 192.640
47.20000 193.796
47.37000 195.978
47.54000 189.571
47.71000 189.205
47.88000 186.798
48.05000 188.761
48.22000 186.241
48.39000 172.565
48.56000 185.332
48.73000 178.719
48.90000 191.739
49.07000 186.755
49.24000 183.399
49.41000 175.038
49.58000 181.077
49.75000 175.594
49.92000 178.611
50.09000 165.505
50.26000 182.066
50.43000 180.259
50.60000 178.616
50.77000 183.144
50.94000 187.482
51.11000 169.542
51.28000 167.715
51.45000 163.394
51.62000 166.229
51.79000 169.229
51.96000 169.259
52.13000 152.769
52.30000 164.247
52.47000 155.301
52.64000 159.800
52.81000 170.594
52.98000 166.360
53.15000 162.603
53.32000 151.671
53.49000 174.176
53.66000 149.812
53.83000 160.900
54.00000 160.592
54.17000 158.886
54.34000 165.273
54.51000 166.924
54.68000 162.148
54.85000 162.000
55.02000 164.356
55.19000 175.195
55.36000 173.982
55.53000 220.046
55.70000 335.162
55.87000 543.270
56.04000 627.586
56.21000 425.408
56.38000 241.892
56.55000 185.311
56.72000 170.533
56.89000 167.911
57.06000 153.602
57.23000 152.730
57.40000 141.268
57.57000 144.360
57.74000 150.336
57.91000 141.679
58.08000 145.716
58.25000 140.155
58.42000 133.499
58.59000 141.333
58.76000 135.254
58.93000 134.722
59.10000 126.845
59.27000 145.194
59.44000 133.909
59.61000 138.782
59.78000 138.848
59.95000 145.083
60.12000 132.528
60.29000 142.074
60.46000 131.407
60.63000 127.948
60.80000 139.772
60.97000 142.955
61.14000 131.127
61.31000 134.407
61.48000 144.467
61.65000 278.439
61.82000 205.082
61.99000 147.697
62.16000 145.793
62.33000 141.461
62.50000 147.612
62.67000 134.771
62.84000 138.848
63.01000 147.410
63.18000 147.637
63.35000 141.835
63.52000 146.464
63.69000 162.072
63.86000 149.649
64.03000 157.782
64.20000 152.904
64.37000 162.342
64.54000 163.763
64.71000 167.111
64.88000 181.618
65.05000 178.766
65.22000 196.811
65.39000 236.548
65.56000 275.688
65.73000 538.717
65.90000 1088.540
66.07000 402.502
66.24000 307.615
66.41000 422.166
66.58000 350.652
66.75000 305.381
66.92000 320.008
67.09000 346.482
67.26000 371.957
67.43000 398.271
67.60000 437.935
67.77000 437.038
67.94000 518.019
68.11000 553.422
68.28000 583.800
68.45000 677.401
68.62000 955.861
68.79000 1753.829
68.96000 9585.650
69.13000 53742.938
69.30000 32431.486
69.47000 8674.199
69.64000 1215.584
69.81000 800.262
69.98000 648.117
70.00000 656.380

File: BTO_Mapping_Theta2Theta_24-09-2025_001_16_9-271_28-532.xy
20.00000 541.758
20.17000 565.186
20.34000 531.133
20.51000 550.849
20.68000 563.947
20.85000 535.748
21.02000 549.865
21.19000 539.625
21.36000 541.549
21.53000 514.968
21.70000 530.134
21.87000 576.525
22.04000 580.731
22.21000 599.776
22.38000 584.184
22.55000 539.747
22.72000 527.984
22.89000 510.424
23.06000 522.129
23.23000 506.742
23.40000 514.513
23.57000 497.045
23.74000 484.842
23.91000 500.727
24.08000 486.136
24.25000 497.837
24.42000 491.463
24.59000 480.650
24.76000 473.280
24.93000 459.746
25.10000 461.980
25.27000 465.184
25.44000 456.041
25.61000 468.338
25.78000 465.493
25.95000 451.121
26.12000 448.118
26.29000 454.900
26.46000 441.351
26.63000 456.411
26.80000 432.811
26.97000 446.230
27.14000 427.941
27.31000 428.786
27.48000 433.235
27.65000 434.798
27.82000 430.813
27.99000 421.718
28.16000 412.013
28.33000 410.450
28.50000 421.087
28.67000 397.358
28.84000 414.743
29.01000 419.466
29.18000 394.166
29.35000 414.913
29.52000 416.364
29.69000 394.075
29.86000 391.071
30.03000 439.187
30.20000 411.165
30.37000 409.178
30.54000 413.984
30.71000 432.725
30.88000 436.319
31.05000 500.948
31.22000 913.340
31.39000 1703.497
31.56000 1328.045
31.73000 636.821
31.90000 458.936
32.07000 414.745
32.24000 403.101
32.41000 377.962
32.58000 383.017
32.75000 352.647
32.92000 437.308
33.09000 399.523
33.26000 346.740
33.43000 335.933
33.60000 331.617
33.77000 341.219
33.94000 326.684
34.11000 318.367
34.28000 326.354
34.45000 317.110
34.62000 320.312
34.79000 323.098
34.96000 317.699
35.13000 308.562
35.30000 314.397
35.47000 315.639
35.64000 309.576
35.81000 303.103
35.98000 304.887
36.15000 292.113
36.32000 305.549
36.49000 301.534
36.66000 290.742
36.83000 305.696
37.00000 304.874
37.17000 309.678
37.34000 299.369
37.51000 293.810
37.68000 295.877
37.85000 288.193
38.02000 294.366
38.19000 307.025
38.36000 326.850
38.53000 586.474
38.70000 1430.490
38.87000 1189.752
39.04000 459.364
39.21000 306.124
39.38000 278.284
39.55000 273.349
39.72000 273.761
39.89000 270.675
40.06000 261.104
40.23000 258.926
40.40000 254.657
40.57000 235.000
40.74000 239.876
40.91000 237.975
41.08000 238.179
41.25000 234.852
41.42000 227.314
41.59000 227.186
41.76000 247.606
41.93000 236.142
42.10000 227.681
42.27000 225.978
42.44000 224.797
42.61000 226.171
42.78000 212.952
42.95000 225.092
43.12000 223.338
43.29000 229.173
43.46000 214.651
43.63000 230.380
43.80000 217.202
43.97000 215.758
44.14000 222.048
44.31000 218.825
44.48000 222.376
44.65000 220.309
44.82000 230.559
44.99000 236.032
45.16000 280.963
45.33000 267.931
45.50000 235.434
45.67000 228.824
45.84000 236.223
46.01000 225.134
46.18000 207.062
46.35000 209.886
46.52000 188.460
46.69000 196.192
46.86000 198.353
47.03000 200.959
47.20000 185.611
47.37000 192.456
47.54000 188.855
47.71000 186.728
47.88000 184.849
48.05000 193.276
48.22000 185.490
48.39000 178.662
48.56000 167.775
48.73000 183.285
48.90000 177.929
49.07000 173.862
49.24000 174.470
49.41000 171.255
49.58000 168.260
49.75000 173.958
49.92000 170.858
50.09000 174.860
50.26000 187.332
50.43000 180.983
50.60000 184.722
50.77000 200.056
50.94000 188.036
51.11000 177.599
51.28000 170.306
51.45000 167.207
51.62000 155.421
51.79000 153.929
51.96000 156.204
52.13000 161.567
52.30000 160.275
52.47000 142.113
52.64000 158.794
52.81000 159.225
52.98000 150.957
53.15000 164.152
53.32000 164.553
53.49000 160.830
53.66000 164.399
53.83000 152.063
54.00000 153.081
54.17000 152.830
54.34000 158.879
54.51000 148.406
54.68000 151.824
54.85000 154.963
55.02000 154.538
55.19000 159.249
55.36000 171.532
55.53000 200.441
55.70000 351.181
55.87000 695.548
56.04000 901.191
56.21000 617.925
56.38000 291.843
56.55000 182.050
56.72000 159.162
56.89000 152.413
57.06000 151.743
57.23000 143.246
57.40000 153.296
57.57000 147.934
57.74000 145.637
57.91000 140.292
58.08000 140.173
58.25000 130.932
58.42000 137.953
58.59000 143.893
58.76000 137.535
58.93000 138.794
59.10000 137.871
59.27000 141.694
59.44000 138.087
59.61000 131.460
59.78000 130.172
59.95000 125.816
60.12000 128.853
60.29000 128.289
60.46000 133.007
60.63000 122.249
60.80000 134.122
60.97000 138.108
61.14000 129.488
61.31000 131.584
61.48000 143.262
61.65000 249.677
61.82000 192.987
61.99000 126.113
62.16000 133.426
62.33000 146.220
62.50000 138.622
62.67000 134.433
62.84000 144.120
63.01000 145.511
63.18000 137.811
63.35000 137.660
63.52000 139.438
63.69000 144.558
63.86000 147.784
64.03000 161.607
64.20000 154.431
64.37000 158.695
64.54000 155.110
64.71000 162.511
64.88000 182.613
65.05000 186.726
65.22000 204.301
65.39000 232.555
65.56000 296.944
65.73000 586.333
65.90000 1073.280
66.07000 375.318
66.24000 313.278
66.41000 421.940
66.58000 362.109
66.75000 302.883
66.92000 316.128
67.09000 343.082
67.26000 359.489
67.43000 384.142
67.60000 411.986
67.77000 443.448
67.94000 502.238
68.11000 545.721
68.28000 564.306
68.45000 683.543
68.62000 938.248
68.79000 1689.356
68.96000 9684.091
69.13000 50412.285
69.30000 30172.957
69.47000 7700.820
69.64000 1168.309
69.81000 755.586
69.98000 654.414
70.00000 624.720