Folder: Master-Thesis/XRD/XRD/24-09-2025 Dep 3/XY Data (part 7)

File: BTO_Mapping_Theta2Theta_24-09-2025_001_56_20-074_-22-294.xy
20.00000 533.083
20.17000 567.814
20.34000 548.133
20.51000 557.421
20.68000 544.511
20.85000 537.808
21.02000 545.474
21.19000 527.839
21.36000 564.442
21.53000 531.004
21.70000 547.350
21.87000 560.391
22.04000 616.566
22.21000 592.112
22.38000 549.581
22.55000 538.622
22.72000 520.192
22.89000 512.408
23.06000 501.930
23.23000 497.162
23.40000 489.481
23.57000 504.187
23.74000 500.301
23.91000 497.788
24.08000 479.930
24.25000 472.810
24.42000 486.067
24.59000 491.889
24.76000 473.815
24.93000 464.535
25.10000 489.160
25.27000 467.430
25.44000 469.665
25.61000 466.206
25.78000 474.935
25.95000 451.965
26.12000 449.518
26.29000 462.443
26.46000 457.937
26.63000 485.777
26.80000 455.180
26.97000 446.526
27.14000 432.093
27.31000 432.526
27.48000 434.806
27.65000 438.105
27.82000 442.648
27.99000 421.641
28.16000 442.183
28.33000 437.738
28.50000 404.305
28.67000 420.644
28.84000 413.103
29.01000 416.851
29.18000 424.715
29.35000 414.742
29.52000 409.370
29.69000 407.060
29.86000 420.349
30.03000 428.982
30.20000 434.930
30.37000 426.779
30.54000 423.634
30.71000 434.246
30.88000 448.702
31.05000 530.686
31.22000 939.220
31.39000 1488.893
31.56000 1084.178
31.73000 575.144
31.90000 436.943
32.07000 415.042
32.24000 421.719
32.41000 389.649
32.58000 365.757
32.75000 362.771
32.92000 470.025
33.09000 396.470
33.26000 346.592
33.43000 356.639
33.60000 334.569
33.77000 324.186
33.94000 341.151
34.11000 333.240
34.28000 316.685
34.45000 326.396
34.62000 309.739
34.79000 355.691
34.96000 325.716
35.13000 326.754
35.30000 307.068
35.47000 307.361
35.64000 295.296
35.81000 292.573
35.98000 321.731
36.15000 310.085
36.32000 309.262
36.49000 296.050
36.66000 291.449
36.83000 300.714
37.00000 309.483
37.17000 305.738
37.34000 303.993
37.51000 279.493
37.68000 291.203
37.85000 299.149
38.02000 307.327
38.19000 320.032
38.36000 343.961
38.53000 661.870
38.70000 1412.497
38.87000 1169.750
39.04000 436.823
39.21000 290.427
39.38000 284.006
39.55000 270.631
39.72000 264.550
39.89000 273.517
40.06000 265.114
40.23000 248.794
40.40000 262.249
40.57000 236.780
40.74000 254.680
40.91000 248.336
41.08000 240.861
41.25000 242.505
41.42000 244.071
41.59000 232.898
41.76000 256.305
41.93000 249.134
42.10000 224.171
42.27000 229.795
42.44000 239.600
42.61000 242.658
42.78000 218.023
42.95000 228.619
43.12000 232.985
43.29000 222.195
43.46000 226.533
43.63000 208.099
43.80000 234.282
43.97000 218.361
44.14000 219.134
44.31000 217.140
44.48000 227.324
44.65000 229.073
44.82000 229.053
44.99000 267.427
45.16000 272.149
45.33000 252.023
45.50000 234.331
45.67000 216.062
45.84000 217.575
46.01000 209.468
46.18000 200.403
46.35000 199.432
46.52000 213.522
46.69000 192.321
46.86000 201.812
47.03000 199.086
47.20000 193.338
47.37000 189.314
47.54000 182.115
47.71000 184.965
47.88000 184.508
48.05000 192.407
48.22000 170.411
48.39000 183.922
48.56000 175.189
48.73000 166.651
48.90000 166.774
49.07000 185.497
49.24000 179.771
49.41000 174.480
49.58000 176.936
49.75000 175.876
49.92000 180.978
50.09000 172.056
50.26000 174.120
50.43000 183.697
50.60000 191.897
50.77000 195.079
50.94000 182.996
51.11000 161.899
51.28000 169.376
51.45000 177.167
51.62000 135.538
51.79000 172.332
51.96000 163.402
52.13000 164.669
52.30000 162.134
52.47000 153.846
52.64000 150.648
52.81000 149.111
52.98000 157.282
53.15000 167.834
53.32000 163.104
53.49000 169.374
53.66000 157.183
53.83000 155.285
54.00000 155.614
54.17000 160.647
54.34000 159.909
54.51000 156.078
54.68000 150.286
54.85000 155.181
55.02000 159.452
55.19000 173.613
55.36000 179.351
55.53000 229.109
55.70000 379.528
55.87000 677.196
56.04000 784.278
56.21000 493.417
56.38000 264.390
56.55000 194.220
56.72000 167.912
56.89000 151.319
57.06000 157.977
57.23000 154.635
57.40000 140.774
57.57000 146.317
57.74000 147.563
57.91000 143.280
58.08000 148.114
58.25000 150.719
58.42000 143.176
58.59000 140.975
58.76000 131.583
58.93000 135.878
59.10000 132.695
59.27000 132.219
59.44000 137.089
59.61000 129.982
59.78000 119.954
59.95000 143.635
60.12000 132.027
60.29000 127.356
60.46000 125.396
60.63000 135.549
60.80000 125.710
60.97000 132.934
61.14000 126.519
61.31000 145.723
61.48000 135.024
61.65000 254.554
61.82000 188.870
61.99000 137.668
62.16000 137.755
62.33000 142.233
62.50000 142.910
62.67000 145.161
62.84000 142.017
63.01000 142.634
63.18000 143.604
63.35000 138.658
63.52000 147.750
63.69000 151.220
63.86000 154.006
64.03000 159.383
64.20000 153.572
64.37000 155.028
64.54000 171.646
64.71000 173.638
64.88000 179.838
65.05000 188.750
65.22000 212.700
65.39000 245.431
65.56000 289.284
65.73000 560.476
65.90000 1023.685
66.07000 350.634
66.24000 294.581
66.41000 406.961
66.58000 321.670
66.75000 299.284
66.92000 331.351
67.09000 333.932
67.26000 366.295
67.43000 369.588
67.60000 419.315
67.77000 444.427
67.94000 480.226
68.11000 537.598
68.28000 599.297
68.45000 683.104
68.62000 942.956
68.79000 1691.014
68.96000 10934.015
69.13000 50466.781
69.30000 29269.826
69.47000 6810.549
69.64000 1114.381
69.81000 765.239
69.98000 665.052
70.00000 651.501

File: BTO_Mapping_Theta2Theta_24-09-2025_001_57_26-765_-29-726.xy
20.00000 578.397
20.17000 592.070
20.34000 577.032
20.51000 539.980
20.68000 554.644
20.85000 551.208
21.02000 543.026
21.19000 550.668
21.36000 558.626
21.53000 532.977
21.70000 552.842
21.87000 595.142
22.04000 611.606
22.21000 600.992
22.38000 559.693
22.55000 525.906
22.72000 508.786
22.89000 517.191
23.06000 519.228
23.23000 513.340
23.40000 517.225
23.57000 522.525
23.74000 539.273
23.91000 527.894
24.08000 553.822
24.25000 511.447
24.42000 491.702
24.59000 496.093
24.76000 479.691
24.93000 492.197
25.10000 472.450
25.27000 489.454
25.44000 473.043
25.61000 454.104
25.78000 465.952
25.95000 477.897
26.12000 463.523
26.29000 465.065
26.46000 453.351
26.63000 448.054
26.80000 437.423
26.97000 453.481
27.14000 448.896
27.31000 430.344
27.48000 432.913
27.65000 435.878
27.82000 451.914
27.99000 415.988
28.16000 439.158
28.33000 422.123
28.50000 421.279
28.67000 397.097
28.84000 416.806
29.01000 419.406
29.18000 414.306
29.35000 410.219
29.52000 423.352
29.69000 413.719
29.86000 407.416
30.03000 408.936
30.20000 442.065
30.37000 431.232
30.54000 418.796
30.71000 419.290
30.88000 460.509
31.05000 561.061
31.22000 938.961
31.39000 1292.189
31.56000 937.015
31.73000 578.953
31.90000 450.252
32.07000 419.456
32.24000 406.019
32.41000 397.974
32.58000 368.390
32.75000 362.052
32.92000 461.522
33.09000 381.994
33.26000 361.995
33.43000 359.531
33.60000 356.380
33.77000 344.944
33.94000 357.964
34.11000 355.823
34.28000 354.168
34.45000 359.219
34.62000 331.461
34.79000 324.345
34.96000 331.120
35.13000 318.147
35.30000 302.974
35.47000 312.911
35.64000 322.741
35.81000 290.172
35.98000 304.178
36.15000 295.218
36.32000 288.609
36.49000 320.395
36.66000 293.002
36.83000 283.494
37.00000 304.330
37.17000 304.063
37.34000 288.439
37.51000 297.722
37.68000 308.239
37.85000 302.454
38.02000 293.489
38.19000 321.749
38.36000 364.917
38.53000 628.036
38.70000 1265.249
38.87000 954.415
39.04000 399.672
39.21000 306.620
39.38000 298.156
39.55000 280.415
39.72000 278.627
39.89000 272.820
40.06000 259.618
40.23000 264.071
40.40000 261.973
40.57000 252.486
40.74000 245.978
40.91000 251.414
41.08000 236.251
41.25000 242.284
41.42000 232.051
41.59000 249.722
41.76000 260.645
41.93000 246.004
42.10000 242.442
42.27000 247.382
42.44000 232.400
42.61000 243.163
42.78000 244.632
42.95000 232.038
43.12000 229.898
43.29000 228.099
43.46000 225.065
43.63000 222.761
43.80000 223.180
43.97000 220.159
44.14000 221.593
44.31000 217.630
44.48000 236.508
44.65000 239.615
44.82000 261.191
44.99000 260.633
45.16000 272.794
45.33000 247.403
45.50000 241.324
45.67000 220.888
45.84000 201.785
46.01000 230.306
46.18000 204.335
46.35000 206.040
46.52000 194.126
46.69000 213.483
46.86000 198.936
47.03000 198.691
47.20000 195.972
47.37000 192.823
47.54000 193.098
47.71000 197.262
47.88000 170.834
48.05000 176.423
48.22000 188.362
48.39000 181.581
48.56000 180.122
48.73000 180.827
48.90000 180.791
49.07000 182.481
49.24000 182.920
49.41000 175.279
49.58000 176.841
49.75000 190.078
49.92000 169.645
50.09000 187.240
50.26000 188.049
50.43000 168.870
50.60000 189.414
50.77000 200.879
50.94000 186.584
51.11000 177.161
51.28000 159.667
51.45000 171.936
51.62000 169.962
51.79000 167.687
51.96000 161.867
52.13000 160.717
52.30000 158.430
52.47000 153.078
52.64000 161.019
52.81000 157.603
52.98000 162.517
53.15000 178.914
53.32000 167.432
53.49000 167.267
53.66000 157.756
53.83000 154.332
54.00000 157.077
54.17000 161.444
54.34000 165.800
54.51000 150.141
54.68000 165.727
54.85000 153.122
55.02000 163.745
55.19000 174.656
55.36000 188.595
55.53000 234.859
55.70000 357.804
55.87000 579.217
56.04000 625.205
56.21000 410.521
56.38000 259.639
56.55000 188.052
56.72000 173.861
56.89000 160.650
57.06000 155.713
57.23000 146.913
57.40000 144.807
57.57000 143.037
57.74000 149.369
57.91000 151.165
58.08000 148.596
58.25000 141.360
58.42000 135.489
58.59000 143.634
58.76000 135.963
58.93000 140.264
59.10000 138.826
59.27000 137.171
59.44000 136.993
59.61000 128.958
59.78000 137.534
59.95000 139.171
60.12000 127.371
60.29000 134.668
60.46000 135.460
60.63000 138.319
60.80000 133.740
60.97000 127.846
61.14000 136.674
61.31000 132.158
61.48000 153.422
61.65000 257.857
61.82000 198.865
61.99000 143.157
62.16000 132.136
62.33000 153.135
62.50000 145.239
62.67000 142.217
62.84000 139.805
63.01000 144.523
63.18000 149.935
63.35000 144.264
63.52000 151.841
63.69000 153.896
63.86000 153.151
64.03000 158.874
64.20000 157.099
64.37000 158.471
64.54000 174.814
64.71000 169.621
64.88000 185.268
65.05000 193.515
65.22000 207.751
65.39000 227.368
65.56000 277.916
65.73000 580.853
65.90000 1094.451
66.07000 356.123
66.24000 316.322
66.41000 439.726
66.58000 359.699
66.75000 316.708
66.92000 331.369
67.09000 343.430
67.26000 372.011
67.43000 400.917
67.60000 441.214
67.77000 467.064
67.94000 526.540
68.11000 546.430
68.28000 621.143
68.45000 729.039
68.62000 965.309
68.79000 1755.710
68.96000 11907.104
69.13000 54584.953
69.30000 31513.850
69.47000 7268.696
69.64000 1159.500
69.81000 793.384
69.98000 657.558
70.00000 654.732

File: BTO_Mapping_Theta2Theta_24-09-2025_001_58_9-135_-4-067.xy
20.00000 551.457
20.17000 562.289
20.34000 565.839
20.51000 556.173
20.68000 547.480
20.85000 538.140
21.02000 556.826
21.19000 531.127
21.36000 534.750
21.53000 550.497
21.70000 539.207
21.87000 568.784
22.04000 596.746
22.21000 607.231
22.38000 560.575
22.55000 538.284
22.72000 523.072
22.89000 512.095
23.06000 509.778
23.23000 501.448
23.40000 498.794
23.57000 491.877
23.74000 488.140
23.91000 476.753
24.08000 489.335
24.25000 494.585
24.42000 495.130
24.59000 491.777
24.76000 481.366
24.93000 495.378
25.10000 465.775
25.27000 459.970
25.44000 456.905
25.61000 480.475
25.78000 461.416
25.95000 461.298
26.12000 480.831
26.29000 464.830
26.46000 478.271
26.63000 454.639
26.80000 450.513
26.97000 434.780
27.14000 433.780
27.31000 432.214
27.48000 440.886
27.65000 427.758
27.82000 417.302
27.99000 427.774
28.16000 420.839
28.33000 418.195
28.50000 403.309
28.67000 408.805
28.84000 409.271
29.01000 411.512
29.18000 415.923
29.35000 397.225
29.52000 411.279
29.69000 400.591
29.86000 429.727
30.03000 426.255
30.20000 415.233
30.37000 417.942
30.54000 414.618
30.71000 416.945
30.88000 431.953
31.05000 582.364
31.22000 1205.036
31.39000 2051.046
31.56000 1404.011
31.73000 637.623
31.90000 467.229
32.07000 414.983
32.24000 400.951
32.41000 388.334
32.58000 383.589
32.75000 373.643
32.92000 436.516
33.09000 395.254
33.26000 341.641
33.43000 346.047
33.60000 325.649
33.77000 332.773
33.94000 321.985
34.11000 332.072
34.28000 330.748
34.45000 328.602
34.62000 319.202
34.79000 330.655
34.96000 323.390
35.13000 311.681
35.30000 303.038
35.47000 322.449
35.64000 312.323
35.81000 311.058
35.98000 305.276
36.15000 297.886
36.32000 313.947
36.49000 297.758
36.66000 298.990
36.83000 288.174
37.00000 305.735
37.17000 311.177
37.34000 311.889
37.51000 289.216
37.68000 306.539
37.85000 286.306
38.02000 307.538
38.19000 314.199
38.36000 350.756
38.53000 709.374
38.70000 1549.740
38.87000 1120.153
39.04000 424.615
39.21000 306.789
39.38000 284.619
39.55000 278.223
39.72000 272.151
39.89000 253.618
40.06000 280.184
40.23000 268.845
40.40000 249.162
40.57000 252.628
40.74000 249.226
40.91000 252.862
41.08000 248.257
41.25000 238.168
41.42000 237.142
41.59000 239.383
41.76000 236.918
41.93000 241.817
42.10000 239.403
42.27000 236.289
42.44000 235.728
42.61000 232.694
42.78000 226.300
42.95000 229.157
43.12000 233.959
43.29000 225.821
43.46000 217.949
43.63000 227.037
43.80000 230.034
43.97000 229.825
44.14000 217.659
44.31000 227.579
44.48000 211.815
44.65000 223.178
44.82000 228.413
44.99000 247.687
45.16000 260.843
45.33000 254.326
45.50000 258.025
45.67000 245.436
45.84000 240.751
46.01000 215.864
46.18000 211.677
46.35000 209.538
46.52000 201.371
46.69000 199.574
46.86000 190.544
47.03000 190.687
47.20000 183.497
47.37000 195.083
47.54000 181.938
47.71000 192.709
47.88000 187.803
48.05000 187.332
48.22000 179.204
48.39000 195.838
48.56000 175.403
48.73000 182.964
48.90000 181.891
49.07000 192.530
49.24000 188.215
49.41000 182.708
49.58000 180.097
49.75000 172.108
49.92000 169.091
50.09000 174.413
50.26000 179.753
50.43000 185.102
50.60000 188.036
50.77000 207.227
50.94000 198.028
51.11000 179.707
51.28000 179.533
51.45000 179.309
51.62000 156.719
51.79000 167.367
51.96000 157.526
52.13000 161.243
52.30000 169.701
52.47000 159.126
52.64000 154.963
52.81000 158.553
52.98000 154.291
53.15000 155.817
53.32000 167.284
53.49000 153.663
53.66000 160.065
53.83000 157.479
54.00000 151.473
54.17000 163.134
54.34000 152.296
54.51000 163.584
54.68000 154.433
54.85000 151.678
55.02000 156.317
55.19000 168.434
55.36000 181.304
55.53000 221.471
55.70000 371.042
55.87000 783.652
56.04000 874.915
56.21000 573.682
56.38000 285.691
56.55000 180.794
56.72000 166.422
56.89000 158.819
57.06000 147.467
57.23000 141.501
57.40000 152.609
57.57000 146.183
57.74000 143.305
57.91000 141.865
58.08000 133.650
58.25000 146.913
58.42000 142.354
58.59000 135.449
58.76000 139.189
58.93000 132.652
59.10000 130.603
59.27000 130.523
59.44000 132.911
59.61000 127.891
59.78000 127.701
59.95000 138.251
60.12000 133.264
60.29000 129.547
60.46000 127.767
60.63000 133.236
60.80000 132.319
60.97000 140.363
61.14000 119.562
61.31000 145.344
61.48000 140.491
61.65000 257.913
61.82000 192.931
61.99000 132.770
62.16000 135.335
62.33000 143.795
62.50000 147.198
62.67000 130.326
62.84000 153.557
63.01000 143.334
63.18000 139.728
63.35000 140.813
63.52000 157.961
63.69000 141.076
63.86000 144.942
64.03000 149.076
64.20000 143.229
64.37000 154.318
64.54000 165.948
64.71000 177.766
64.88000 188.996
65.05000 198.397
65.22000 223.024
65.39000 246.046
65.56000 318.007
65.73000 589.761
65.90000 1049.112
66.07000 357.095
66.24000 327.281
66.41000 411.115
66.58000 325.452
66.75000 310.738
66.92000 311.719
67.09000 342.917
67.26000 362.187
67.43000 393.421
67.60000 418.173
67.77000 466.173
67.94000 493.697
68.11000 529.674
68.28000 591.056
68.45000 678.120
68.62000 955.224
68.79000 1726.384
68.96000 10908.049
69.13000 50770.965
69.30000 29841.234
69.47000 7194.813
69.64000 1135.628
69.81000 792.398
69.98000 652.373
70.00000 632.430

File: BTO_Mapping_Theta2Theta_24-09-2025_001_59_18-271_-8-135.xy
20.00000 577.435
20.17000 549.426
20.34000 553.798
20.51000 551.948
20.68000 542.469
20.85000 554.227
21.02000 531.689
21.19000 550.676
21.36000 537.783
21.53000 535.433
21.70000 543.379
21.87000 559.986
22.04000 585.633
22.21000 600.654
22.38000 557.054
22.55000 544.086
22.72000 521.476
22.89000 499.048
23.06000 490.772
23.23000 526.507
23.40000 517.698
23.57000 513.846
23.74000 483.337
23.91000 487.465
24.08000 483.147
24.25000 494.112
24.42000 482.868
24.59000 495.650
24.76000 471.373
24.93000 480.646
25.10000 463.360
25.27000 482.381
25.44000 463.678
25.61000 450.978
25.78000 464.804
25.95000 464.250
26.12000 444.249
26.29000 459.837
26.46000 447.315
26.63000 438.872
26.80000 450.433
26.97000 444.242
27.14000 448.313
27.31000 444.134
27.48000 431.456
27.65000 441.784
27.82000 419.188
27.99000 407.738
28.16000 430.812
28.33000 438.194
28.50000 422.962
28.67000 421.531
28.84000 422.976
29.01000 423.714
29.18000 419.733
29.35000 408.382
29.52000 387.068
29.69000 402.442
29.86000 403.834
30.03000 453.648
30.20000 413.184
30.37000 413.938
30.54000 419.222
30.71000 432.236
30.88000 438.486
31.05000 524.810
31.22000 997.377
31.39000 1572.867
31.56000 1152.826
31.73000 590.518
31.90000 445.839
32.07000 404.975
32.24000 392.514
32.41000 382.914
32.58000 386.528
32.75000 364.675
32.92000 433.787
33.09000 359.038
33.26000 340.437
33.43000 339.187
33.60000 331.902
33.77000 342.558
33.94000 337.359
34.11000 323.063
34.28000 323.567
34.45000 319.101
34.62000 339.083
34.79000 311.822
34.96000 308.878
35.13000 317.494
35.30000 308.258
35.47000 298.047
35.64000 313.084
35.81000 303.522
35.98000 311.913
36.15000 295.630
36.32000 311.350
36.49000 310.680
36.66000 315.077
36.83000 303.221
37.00000 313.938
37.17000 303.023
37.34000 302.736
37.51000 307.651
37.68000 299.968
37.85000 303.763
38.02000 302.153
38.19000 305.130
38.36000 338.697
38.53000 648.793
38.70000 1459.056
38.87000 1156.286
39.04000 433.211
39.21000 302.060
39.38000 293.934
39.55000 267.194
39.72000 260.935
39.89000 265.183
40.06000 262.535
40.23000 267.242
40.40000 261.714
40.57000 251.012
40.74000 252.594
40.91000 244.117
41.08000 231.797
41.25000 258.440
41.42000 248.383
41.59000 232.991
41.76000 242.568
41.93000 236.906
42.10000 233.727
42.27000 239.411
42.44000 231.358
42.61000 233.566
42.78000 229.200
42.95000 225.326
43.12000 222.598
43.29000 233.432
43.46000 216.182
43.63000 229.331
43.80000 224.349
43.97000 211.341
44.14000 214.268
44.31000 214.800
44.48000 208.037
44.65000 223.797
44.82000 244.988
44.99000 257.472
45.16000 255.377
45.33000 257.578
45.50000 239.184
45.67000 219.194
45.84000 224.821
46.01000 205.229
46.18000 214.891
46.35000 193.481
46.52000 192.932
46.69000 206.551
46.86000 185.783
47.03000 188.164
47.20000 197.204
47.37000 184.204
47.54000 190.938
47.71000 179.368
47.88000 190.719
48.05000 191.990
48.22000 183.027
48.39000 173.173
48.56000 195.794
48.73000 175.133
48.90000 175.366
49.07000 171.710
49.24000 185.487
49.41000 175.257
49.58000 178.151
49.75000 162.867
49.92000 171.110
50.09000 175.236
50.26000 176.586
50.43000 184.325
50.60000 196.523
50.77000 202.265
50.94000 188.032
51.11000 185.584
51.28000 167.805
51.45000 177.660
51.62000 184.792
51.79000 158.231
51.96000 156.887
52.13000 163.058
52.30000 153.775
52.47000 168.386
52.64000 154.075
52.81000 155.596
52.98000 168.034
53.15000 151.816
53.32000 173.014
53.49000 161.714
53.66000 173.268
53.83000 166.712
54.00000 151.925
54.17000 161.973
54.34000 167.327
54.51000 164.401
54.68000 165.381
54.85000 159.732
55.02000 168.980
55.19000 170.146
55.36000 181.520
55.53000 217.422
55.70000 379.257
55.87000 709.367
56.04000 818.931
56.21000 515.267
56.38000 264.095
56.55000 194.167
56.72000 167.509
56.89000 159.382
57.06000 149.709
57.23000 146.877
57.40000 153.001
57.57000 140.882
57.74000 137.124
57.91000 140.963
58.08000 142.198
58.25000 145.771
58.42000 137.307
58.59000 129.331
58.76000 132.574
58.93000 132.685
59.10000 127.490
59.27000 138.974
59.44000 127.584
59.61000 126.426
59.78000 131.653
59.95000 126.542
60.12000 133.501
60.29000 124.282
60.46000 128.054
60.63000 129.114
60.80000 130.571
60.97000 122.522
61.14000 138.387
61.31000 132.796
61.48000 152.652
61.65000 264.813
61.82000 191.583
61.99000 140.051
62.16000 137.526
62.33000 148.467
62.50000 141.357
62.67000 146.240
62.84000 147.703
63.01000 134.209
63.18000 136.889
63.35000 140.014
63.52000 145.049
63.69000 146.677
63.86000 147.289
64.03000 152.816
64.20000 166.015
64.37000 153.686
64.54000 170.221
64.71000 171.311
64.88000 175.374
65.05000 184.100
65.22000 215.503
65.39000 231.954
65.56000 280.087
65.73000 565.146
65.90000 994.255
66.07000 354.200
66.24000 294.571
66.41000 421.808
66.58000 335.545
66.75000 306.676
66.92000 310.893
67.09000 346.230
67.26000 361.225
67.43000 392.813
67.60000 430.633
67.77000 450.302
67.94000 485.877
68.11000 526.459
68.28000 570.284
68.45000 649.113
68.62000 907.324
68.79000 1699.905
68.96000 10581.837
69.13000 49486.680
69.30000 28843.674
69.47000 6896.853
69.64000 1132.472
69.81000 764.553
69.98000 633.732
70.00000 630.943

File: BTO_Mapping_Theta2Theta_24-09-2025_001_61_36-542_-16-269.xy
20.00000 563.199
20.17000 549.366
20.34000 544.617
20.51000 564.504
20.68000 562.684
20.85000 556.519
21.02000 526.080
21.19000 567.936
21.36000 552.362
21.53000 566.581
21.70000 579.299
21.87000 598.158
22.04000 622.984
22.21000 595.648
22.38000 555.749
22.55000 549.421
22.72000 526.660
22.89000 527.014
23.06000 518.279
23.23000 529.029
23.40000 525.148
23.57000 513.678
23.74000 544.606
23.91000 574.736
24.08000 556.801
24.25000 514.381
24.42000 488.726
24.59000 490.807
24.76000 482.173
24.93000 493.269
25.10000 474.351
25.27000 490.395
25.44000 485.060
25.61000 466.057
25.78000 467.670
25.95000 474.260
26.12000 467.568
26.29000 457.913
26.46000 468.933
26.63000 463.778
26.80000 442.930
26.97000 429.909
27.14000 456.104
27.31000 442.743
27.48000 448.387
27.65000 435.702
27.82000 439.413
27.99000 424.959
28.16000 423.147
28.33000 417.616
28.50000 439.650
28.67000 406.782
28.84000 415.019
29.01000 422.251
29.18000 412.283
29.35000 413.206
29.52000 397.686
29.69000 423.739
29.86000 421.137
30.03000 435.828
30.20000 417.050
30.37000 424.007
30.54000 406.783
30.71000 451.187
30.88000 469.346
31.05000 536.742
31.22000 834.999
31.39000 1111.185
31.56000 876.553
31.73000 530.064
31.90000 445.431
32.07000 408.989
32.24000 408.429
32.41000 388.797
32.58000 388.034
32.75000 387.973
32.92000 469.316
33.09000 401.091
33.26000 355.637
33.43000 342.920
33.60000 344.542
33.77000 350.289
33.94000 343.269
34.11000 364.244
34.28000 371.859
34.45000 356.859
34.62000 324.142
34.79000 344.753
34.96000 328.159
35.13000 326.625
35.30000 339.079
35.47000 309.924
35.64000 309.009
35.81000 303.962
35.98000 308.244
36.15000 306.070
36.32000 287.630
36.49000 298.876
36.66000 300.532
36.83000 303.069
37.00000 295.243
37.17000 308.979
37.34000 304.488
37.51000 294.227
37.68000 305.273
37.85000 301.810
38.02000 301.616
38.19000 307.986
38.36000 375.091
38.53000 638.008
38.70000 1052.344
38.87000 744.304
39.04000 382.122
39.21000 297.207
39.38000 302.694
39.55000 284.668
39.72000 293.604
39.89000 283.139
40.06000 261.219
40.23000 267.461
40.40000 273.660
40.57000 255.773
40.74000 256.627
40.91000 259.627
41.08000 246.306
41.25000 230.249
41.42000 241.746
41.59000 243.032
41.76000 237.141
41.93000 238.534
42.10000 252.637
42.27000 253.843
42.44000 244.694
42.61000 234.384
42.78000 236.120
42.95000 226.013
43.12000 232.350
43.29000 226.588
43.46000 229.978
43.63000 229.768
43.80000 230.195
43.97000 228.154
44.14000 227.805
44.31000 242.463
44.48000 251.241
44.65000 252.067
44.82000 267.417
44.99000 275.701
45.16000 286.128
45.33000 257.712
45.50000 239.608
45.67000 211.910
45.84000 216.231
46.01000 207.486
46.18000 199.852
46.35000 202.418
46.52000 214.280
46.69000 206.516
46.86000 200.017
47.03000 195.497
47.20000 191.418
47.37000 193.015
47.54000 200.614
47.71000 187.758
47.88000 181.691
48.05000 187.804
48.22000 183.358
48.39000 188.914
48.56000 176.193
48.73000 187.241
48.90000 186.078
49.07000 188.163
49.24000 186.829
49.41000 187.134
49.58000 177.055
49.75000 183.691
49.92000 179.495
50.09000 177.725
50.26000 177.537
50.43000 183.278
50.60000 181.538
50.77000 188.946
50.94000 188.246
51.11000 178.278
51.28000 173.358
51.45000 174.306
51.62000 170.245
51.79000 168.784
51.96000 174.929
52.13000 171.076
52.30000 161.059
52.47000 164.327
52.64000 160.506
52.81000 161.294
52.98000 171.178
53.15000 167.588
53.32000 164.410
53.49000 163.844
53.66000 166.150
53.83000 161.225
54.00000 157.092
54.17000 163.175
54.34000 163.589
54.51000 192.275
54.68000 159.597
54.85000 161.451
55.02000 181.966
55.19000 175.675
55.36000 194.100
55.53000 244.854
55.70000 345.456
55.87000 484.070
56.04000 475.805
56.21000 328.377
56.38000 223.496
56.55000 194.226
56.72000 157.409
56.89000 159.656
57.06000 152.606
57.23000 153.981
57.40000 147.867
57.57000 151.747
57.74000 157.002
57.91000 134.299
58.08000 130.890
58.25000 145.253
58.42000 140.572
58.59000 140.189
58.76000 135.103
58.93000 130.875
59.10000 144.105
59.27000 146.421
59.44000 133.610
59.61000 130.876
59.78000 137.360
59.95000 138.176
60.12000 133.030
60.29000 139.122
60.46000 134.860
60.63000 134.112
60.80000 133.139
60.97000 140.938
61.14000 143.549
61.31000 142.606
61.48000 144.662
61.65000 250.073
61.82000 199.398
61.99000 154.514
62.16000 141.930
62.33000 136.751
62.50000 149.484
62.67000 136.130
62.84000 134.803
63.01000 143.359
63.18000 151.495
63.35000 148.749
63.52000 149.317
63.69000 150.003
63.86000 153.096
64.03000 162.071
64.20000 154.303
64.37000 171.749
64.54000 165.691
64.71000 165.828
64.88000 189.019
65.05000 184.009
65.22000 214.315
65.39000 223.706
65.56000 259.473
65.73000 569.327
65.90000 1045.325
66.07000 374.601
66.24000 309.590
66.41000 448.952
66.58000 336.826
66.75000 314.057
66.92000 314.902
67.09000 345.936
67.26000 377.354
67.43000 395.710
67.60000 428.301
67.77000 484.211
67.94000 516.080
68.11000 550.292
68.28000 629.424
68.45000 692.501
68.62000 982.959
68.79000 1741.594
68.96000 11196.246
69.13000 52876.633
69.30000 30786.053
69.47000 7198.470
69.64000 1189.813
69.81000 780.899
69.98000 645.215
70.00000 644.497