Folder: Master-Thesis/XRD/XRD/24-09-2025 Dep 3/XY Data

File: BTO_fwhm_results.csv
X Coordinates,Y Coordinates,FWHM
-39.126,-8.316,0.321252
-39.126,8.316,0.332785
-32.361,-23.511,0.33037
-32.361,23.511,0.328558
-29.344,-6.237,0.336826
-29.344,6.237,0.334927
-24.271,-17.634,0.348348
-24.271,17.634,0.335448
-20.0,-34.641,0.342899
-20.0,34.641,0.342703
-19.563,-4.158,0.339861
-19.563,4.158,0.348192
-16.18,-11.756,0.340158
-16.18,11.756,0.342359
-15.0,-25.981,0.344312
-15.0,25.981,0.339728
-10.0,-17.321,0.339208
-10.0,17.321,0.336575
-9.781,-2.079,0.341061
-9.781,2.079,0.338824
-8.09,-5.878,0.344753
-8.09,5.878,0.341224
-5.0,-8.66,0.34703
-5.0,8.66,0.341724
-4.181,-39.781,0.361764
-4.181,39.781,0.34894
-3.136,-29.836,0.360038
-3.136,29.836,0.347073
-2.091,-19.89,0.352235
-2.091,19.89,0.342981
-1.045,-9.945,0.348547
-1.045,9.945,0.348451
0.0,0.0,0.347061
3.09,-9.511,0.351761
3.09,9.511,0.351155
6.18,-19.021,0.355907
6.18,19.021,0.353876
6.691,-7.431,0.35203
6.691,7.431,0.34666
9.135,-4.067,0.362651
9.135,4.067,0.357733
9.271,-28.532,0.362142
9.271,28.532,0.343859
10.0,0.0,0.355275
12.361,-38.042,0.376604
12.361,38.042,0.363526
13.383,-14.863,0.370607
13.383,14.863,0.355356
18.271,-8.135,0.373616
18.271,8.135,0.368792
20.0,0.0,0.376677
20.074,-22.294,0.37772
20.074,22.294,0.37235
26.765,-29.726,0.40457
26.765,29.726,0.379659
27.406,-12.202,0.381269
27.406,12.202,0.386952
30.0,0.0,0.391021
36.542,-16.269,0.419498
36.542,16.269,0.393045
40.0,0.0,0.425722

File: BTO_Mapping_Theta2Theta_24-09-2025_001_03_20-000_0-000.xy
20.00000 560.178
20.17000 559.341
20.34000 570.932
20.51000 547.213
20.68000 561.665
20.85000 561.198
21.02000 566.906
21.19000 549.755
21.36000 537.769
21.53000 553.736
21.70000 553.277
21.87000 578.051
22.04000 615.272
22.21000 586.563
22.38000 561.084
22.55000 528.207
22.72000 520.676
22.89000 510.352
23.06000 500.269
23.23000 510.723
23.40000 525.334
23.57000 518.343
23.74000 505.988
23.91000 505.941
24.08000 500.437
24.25000 490.488
24.42000 512.837
24.59000 475.449
24.76000 475.942
24.93000 470.470
25.10000 487.459
25.27000 476.152
25.44000 468.856
25.61000 470.576
25.78000 469.681
25.95000 453.476
26.12000 456.179
26.29000 478.101
26.46000 455.026
26.63000 451.682
26.80000 467.773
26.97000 455.497
27.14000 455.253
27.31000 455.585
27.48000 446.008
27.65000 454.221
27.82000 419.935
27.99000 401.029
28.16000 430.792
28.33000 421.097
28.50000 427.511
28.67000 412.800
28.84000 411.253
29.01000 393.647
29.18000 423.934
29.35000 408.585
29.52000 409.725
29.69000 414.976
29.86000 413.930
30.03000 404.134
30.20000 433.359
30.37000 426.000
30.54000 424.870
30.71000 416.148
30.88000 448.497
31.05000 530.695
31.22000 955.319
31.39000 1547.247
31.56000 1154.545
31.73000 573.489
31.90000 430.766
32.07000 414.565
32.24000 402.165
32.41000 385.415
32.58000 395.152
32.75000 368.887
32.92000 431.585
33.09000 399.308
33.26000 340.436
33.43000 351.997
33.60000 331.016
33.77000 338.203
33.94000 336.033
34.11000 340.355
34.28000 330.230
34.45000 329.510
34.62000 306.184
34.79000 322.655
34.96000 322.621
35.13000 340.530
35.30000 312.738
35.47000 307.968
35.64000 303.153
35.81000 305.953
35.98000 300.010
36.15000 301.307
36.32000 305.620
36.49000 293.924
36.66000 296.205
36.83000 314.934
37.00000 305.883
37.17000 310.022
37.34000 297.738
37.51000 288.561
37.68000 301.565
37.85000 295.822
38.02000 304.119
38.19000 304.926
38.36000 329.283
38.53000 639.109
38.70000 1426.507
38.87000 1172.158
39.04000 441.466
39.21000 302.241
39.38000 281.159
39.55000 257.125
39.72000 289.088
39.89000 258.898
40.06000 251.000
40.23000 269.543
40.40000 258.762
40.57000 257.208
40.74000 252.539
40.91000 253.729
41.08000 246.828
41.25000 241.857
41.42000 238.520
41.59000 232.013
41.76000 238.147
41.93000 244.082
42.10000 235.788
42.27000 238.171
42.44000 234.791
42.61000 235.786
42.78000 240.143
42.95000 226.879
43.12000 223.650
43.29000 222.495
43.46000 234.473
43.63000 231.783
43.80000 211.947
43.97000 222.725
44.14000 215.086
44.31000 215.926
44.48000 237.624
44.65000 220.298
44.82000 232.470
44.99000 274.760
45.16000 282.995
45.33000 246.983
45.50000 236.273
45.67000 223.847
45.84000 213.895
46.01000 210.212
46.18000 196.279
46.35000 182.508
46.52000 211.968
46.69000 206.843
46.86000 198.494
47.03000 196.417
47.20000 191.479
47.37000 189.133
47.54000 194.453
47.71000 189.585
47.88000 184.449
48.05000 175.286
48.22000 191.674
48.39000 179.916
48.56000 170.654
48.73000 178.983
48.90000 174.760
49.07000 183.418
49.24000 185.186
49.41000 175.742
49.58000 168.670
49.75000 174.530
49.92000 177.448
50.09000 165.645
50.26000 184.058
50.43000 180.559
50.60000 186.831
50.77000 189.452
50.94000 185.648
51.11000 177.255
51.28000 185.558
51.45000 166.787
51.62000 180.226
51.79000 162.760
51.96000 158.786
52.13000 154.339
52.30000 164.835
52.47000 161.956
52.64000 159.542
52.81000 156.261
52.98000 137.557
53.15000 172.097
53.32000 173.479
53.49000 159.710
53.66000 168.923
53.83000 167.357
54.00000 156.312
54.17000 163.918
54.34000 158.609
54.51000 157.677
54.68000 165.104
54.85000 155.598
55.02000 163.641
55.19000 163.194
55.36000 185.451
55.53000 216.943
55.70000 372.244
55.87000 671.371
56.04000 822.395
56.21000 514.256
56.38000 267.509
56.55000 192.736
56.72000 158.550
56.89000 151.227
57.06000 148.213
57.23000 141.521
57.40000 138.065
57.57000 148.132
57.74000 140.271
57.91000 139.000
58.08000 137.641
58.25000 136.901
58.42000 148.421
58.59000 136.006
58.76000 131.824
58.93000 128.943
59.10000 140.132
59.27000 123.041
59.44000 126.032
59.61000 127.874
59.78000 136.042
59.95000 133.380
60.12000 132.550
60.29000 130.804
60.46000 127.013
60.63000 135.406
60.80000 139.479
60.97000 146.518
61.14000 128.623
61.31000 142.156
61.48000 151.826
61.65000 246.867
61.82000 185.928
61.99000 140.164
62.16000 136.397
62.33000 139.888
62.50000 141.510
62.67000 134.980
62.84000 146.758
63.01000 137.364
63.18000 143.685
63.35000 138.336
63.52000 145.284
63.69000 152.583
63.86000 146.949
64.03000 164.445
64.20000 165.185
64.37000 157.861
64.54000 162.402
64.71000 159.076
64.88000 173.820
65.05000 184.469
65.22000 195.052
65.39000 238.874
65.56000 283.569
65.73000 556.582
65.90000 1012.621
66.07000 351.795
66.24000 298.719
66.41000 415.716
66.58000 336.312
66.75000 303.912
66.92000 326.422
67.09000 329.167
67.26000 356.179
67.43000 387.994
67.60000 416.446
67.77000 410.914
67.94000 486.596
68.11000 502.325
68.28000 570.666
68.45000 665.407
68.62000 913.559
68.79000 1713.139
68.96000 10670.221
69.13000 49597.363
69.30000 29160.611
69.47000 6878.461
69.64000 1120.284
69.81000 747.496
69.98000 636.062
70.00000 627.218

File: BTO_Mapping_Theta2Theta_24-09-2025_001_04_30-000_0-000.xy
20.00000 552.304
20.17000 552.204
20.34000 563.606
20.51000 572.347
20.68000 561.923
20.85000 556.994
21.02000 554.174
21.19000 538.474
21.36000 571.803
21.53000 543.723
21.70000 564.701
21.87000 590.708
22.04000 602.900
22.21000 600.566
22.38000 546.201
22.55000 539.808
22.72000 535.344
22.89000 512.291
23.06000 523.907
23.23000 513.637
23.40000 515.701
23.57000 514.156
23.74000 517.532
23.91000 537.914
24.08000 520.428
24.25000 515.274
24.42000 505.995
24.59000 494.075
24.76000 483.081
24.93000 469.699
25.10000 467.514
25.27000 474.709
25.44000 482.037
25.61000 466.636
25.78000 463.449
25.95000 479.832
26.12000 458.912
26.29000 464.911
26.46000 458.312
26.63000 452.706
26.80000 469.884
26.97000 433.661
27.14000 425.808
27.31000 452.633
27.48000 448.910
27.65000 454.033
27.82000 447.323
27.99000 444.031
28.16000 413.300
28.33000 434.094
28.50000 427.659
28.67000 412.111
28.84000 425.660
29.01000 427.472
29.18000 412.661
29.35000 408.719
29.52000 417.601
29.69000 416.701
29.86000 398.044
30.03000 447.553
30.20000 449.459
30.37000 408.882
30.54000 424.605
30.71000 432.921
30.88000 470.881
31.05000 553.293
31.22000 947.597
31.39000 1319.343
31.56000 957.283
31.73000 586.172
31.90000 448.333
32.07000 414.209
32.24000 424.871
32.41000 395.571
32.58000 379.309
32.75000 363.840
32.92000 458.190
33.09000 384.480
33.26000 338.555
33.43000 340.096
33.60000 329.977
33.77000 345.576
33.94000 334.791
34.11000 341.204
34.28000 358.547
34.45000 334.629
34.62000 351.593
34.79000 319.546
34.96000 318.932
35.13000 335.702
35.30000 316.163
35.47000 311.629
35.64000 314.390
35.81000 312.540
35.98000 308.962
36.15000 295.628
36.32000 306.492
36.49000 297.865
36.66000 316.017
36.83000 307.255
37.00000 305.481
37.17000 312.133
37.34000 301.529
37.51000 301.496
37.68000 286.003
37.85000 305.523
38.02000 302.448
38.19000 327.983
38.36000 351.801
38.53000 624.558
38.70000 1207.186
38.87000 922.578
39.04000 413.845
39.21000 306.105
39.38000 274.933
39.55000 265.629
39.72000 269.994
39.89000 256.804
40.06000 272.168
40.23000 257.251
40.40000 250.462
40.57000 250.108
40.74000 249.670
40.91000 246.834
41.08000 233.991
41.25000 250.770
41.42000 250.230
41.59000 241.514
41.76000 259.054
41.93000 237.881
42.10000 242.341
42.27000 246.364
42.44000 248.287
42.61000 238.640
42.78000 234.830
42.95000 240.440
43.12000 231.617
43.29000 236.197
43.46000 217.720
43.63000 227.852
43.80000 225.100
43.97000 220.309
44.14000 223.615
44.31000 214.219
44.48000 235.770
44.65000 236.641
44.82000 259.184
44.99000 268.819
45.16000 276.442
45.33000 258.432
45.50000 230.093
45.67000 226.402
45.84000 229.519
46.01000 210.017
46.18000 207.394
46.35000 205.331
46.52000 207.320
46.69000 209.614
46.86000 195.100
47.03000 191.221
47.20000 189.285
47.37000 192.347
47.54000 191.169
47.71000 188.889
47.88000 192.498
48.05000 190.291
48.22000 185.139
48.39000 184.835
48.56000 179.513
48.73000 192.353
48.90000 173.858
49.07000 182.341
49.24000 178.657
49.41000 181.660
49.58000 173.285
49.75000 181.196
49.92000 172.039
50.09000 180.628
50.26000 181.540
50.43000 185.916
50.60000 192.629
50.77000 190.582
50.94000 185.832
51.11000 170.939
51.28000 163.354
51.45000 189.243
51.62000 161.230
51.79000 164.877
51.96000 168.509
52.13000 156.629
52.30000 160.625
52.47000 176.189
52.64000 167.202
52.81000 162.005
52.98000 164.110
53.15000 160.613
53.32000 167.036
53.49000 166.304
53.66000 163.284
53.83000 160.269
54.00000 161.257
54.17000 160.240
54.34000 158.345
54.51000 157.533
54.68000 154.240
54.85000 167.370
55.02000 162.463
55.19000 166.080
55.36000 183.592
55.53000 225.823
55.70000 353.066
55.87000 578.704
56.04000 616.515
56.21000 403.531
56.38000 225.027
56.55000 194.407
56.72000 167.449
56.89000 166.272
57.06000 158.603
57.23000 151.842
57.40000 154.798
57.57000 151.943
57.74000 133.718
57.91000 152.712
58.08000 155.739
58.25000 131.557
58.42000 139.020
58.59000 136.710
58.76000 130.959
58.93000 136.642
59.10000 144.883
59.27000 127.497
59.44000 134.276
59.61000 135.494
59.78000 133.287
59.95000 135.130
60.12000 128.486
60.29000 138.020
60.46000 131.207
60.63000 134.045
60.80000 133.870
60.97000 137.997
61.14000 125.479
61.31000 140.151
61.48000 132.284
61.65000 274.309
61.82000 207.445
61.99000 143.040
62.16000 145.202
62.33000 145.473
62.50000 138.378
62.67000 149.767
62.84000 132.627
63.01000 146.436
63.18000 148.525
63.35000 141.141
63.52000 151.671
63.69000 158.253
63.86000 162.039
64.03000 165.227
64.20000 161.426
64.37000 156.908
64.54000 172.266
64.71000 173.769
64.88000 191.237
65.05000 184.233
65.22000 214.983
65.39000 236.653
65.56000 275.612
65.73000 564.750
65.90000 1084.647
66.07000 397.096
66.24000 308.437
66.41000 434.893
66.58000 331.094
66.75000 304.152
66.92000 324.372
67.09000 357.584
67.26000 380.812
67.43000 398.740
67.60000 416.555
67.77000 481.721
67.94000 488.546
68.11000 556.576
68.28000 614.642
68.45000 732.738
68.62000 967.947
68.79000 1829.532
68.96000 11257.387
69.13000 54792.961
69.30000 32215.342
69.47000 7804.591
69.64000 1205.968
69.81000 817.251
69.98000 661.247
70.00000 652.626

File: BTO_Mapping_Theta2Theta_24-09-2025_001_07_18-271_8-135.xy
20.00000 563.411
20.17000 568.201
20.34000 539.623
20.51000 568.721
20.68000 553.040
20.85000 565.505
21.02000 545.420
21.19000 569.124
21.36000 545.464
21.53000 544.444
21.70000 535.866
21.87000 557.643
22.04000 626.206
22.21000 600.323
22.38000 562.209
22.55000 520.651
22.72000 552.423
22.89000 494.441
23.06000 509.173
23.23000 543.863
23.40000 499.301
23.57000 508.803
23.74000 513.926
23.91000 497.196
24.08000 505.876
24.25000 487.389
24.42000 478.010
24.59000 499.095
24.76000 474.323
24.93000 472.464
25.10000 461.144
25.27000 466.003
25.44000 489.700
25.61000 465.011
25.78000 456.574
25.95000 452.419
26.12000 460.221
26.29000 447.085
26.46000 466.312
26.63000 452.745
26.80000 434.791
26.97000 438.973
27.14000 438.226
27.31000 429.588
27.48000 446.243
27.65000 438.369
27.82000 440.420
27.99000 410.321
28.16000 428.304
28.33000 413.900
28.50000 420.957
28.67000 423.706
28.84000 403.407
29.01000 404.995
29.18000 420.588
29.35000 416.778
29.52000 399.086
29.69000 403.261
29.86000 421.326
30.03000 443.630
30.20000 409.558
30.37000 414.471
30.54000 419.551
30.71000 422.207
30.88000 442.384
31.05000 509.169
31.22000 974.358
31.39000 1527.603
31.56000 1193.837
31.73000 609.795
31.90000 436.244
32.07000 411.778
32.24000 383.389
32.41000 399.853
32.58000 378.272
32.75000 374.943
32.92000 452.868
33.09000 400.629
33.26000 343.168
33.43000 342.076
33.60000 346.136
33.77000 333.883
33.94000 340.676
34.11000 323.324
34.28000 329.474
34.45000 326.448
34.62000 307.507
34.79000 321.271
34.96000 303.777
35.13000 316.819
35.30000 310.802
35.47000 321.186
35.64000 300.014
35.81000 304.117
35.98000 307.265
36.15000 314.612
36.32000 279.857
36.49000 278.945
36.66000 295.667
36.83000 297.676
37.00000 310.061
37.17000 320.846
37.34000 300.717
37.51000 297.334
37.68000 293.360
37.85000 295.724
38.02000 289.239
38.19000 309.039
38.36000 316.421
38.53000 628.519
38.70000 1419.581
38.87000 1150.555
39.04000 445.297
39.21000 309.010
39.38000 271.963
39.55000 265.640
39.72000 288.244
39.89000 272.494
40.06000 248.263
40.23000 267.885
40.40000 248.069
40.57000 243.097
40.74000 254.176
40.91000 247.927
41.08000 246.262
41.25000 255.524
41.42000 234.082
41.59000 233.543
41.76000 230.440
41.93000 243.340
42.10000 234.583
42.27000 245.280
42.44000 227.543
42.61000 229.631
42.78000 231.385
42.95000 227.930
43.12000 230.697
43.29000 217.707
43.46000 219.851
43.63000 213.935
43.80000 225.469
43.97000 217.230
44.14000 223.195
44.31000 233.159
44.48000 201.656
44.65000 218.028
44.82000 243.149
44.99000 256.599
45.16000 274.872
45.33000 252.602
45.50000 227.563
45.67000 235.575
45.84000 216.829
46.01000 224.848
46.18000 210.065
46.35000 209.264
46.52000 198.217
46.69000 189.903
46.86000 194.746
47.03000 199.616
47.20000 186.994
47.37000 185.676
47.54000 185.806
47.71000 174.480
47.88000 197.070
48.05000 189.578
48.22000 187.031
48.39000 190.407
48.56000 184.889
48.73000 167.483
48.90000 182.798
49.07000 176.966
49.24000 182.021
49.41000 162.319
49.58000 178.071
49.75000 184.258
49.92000 180.164
50.09000 171.950
50.26000 178.346
50.43000 181.691
50.60000 185.397
50.77000 190.509
50.94000 191.058
51.11000 183.518
51.28000 157.543
51.45000 168.888
51.62000 174.510
51.79000 172.233
51.96000 154.297
52.13000 164.114
52.30000 157.726
52.47000 157.699
52.64000 158.252
52.81000 157.472
52.98000 165.427
53.15000 163.735
53.32000 174.037
53.49000 167.865
53.66000 151.637
53.83000 160.236
54.00000 144.172
54.17000 158.387
54.34000 153.932
54.51000 155.418
54.68000 157.237
54.85000 165.341
55.02000 170.815
55.19000 169.425
55.36000 174.829
55.53000 214.220
55.70000 365.264
55.87000 703.063
56.04000 850.558
56.21000 539.177
56.38000 252.152
56.55000 184.958
56.72000 169.841
56.89000 158.716
57.06000 142.828
57.23000 152.203
57.40000 141.463
57.57000 144.766
57.74000 140.844
57.91000 154.321
58.08000 148.618
58.25000 127.383
58.42000 140.344
58.59000 137.918
58.76000 132.951
58.93000 137.030
59.10000 140.657
59.27000 131.860
59.44000 137.852
59.61000 139.730
59.78000 126.102
59.95000 133.396
60.12000 126.187
60.29000 143.209
60.46000 126.683
60.63000 134.787
60.80000 125.195
60.97000 137.328
61.14000 128.818
61.31000 149.611
61.48000 158.829
61.65000 233.694
61.82000 198.460
61.99000 143.385
62.16000 132.198
62.33000 130.965
62.50000 142.786
62.67000 141.848
62.84000 145.022
63.01000 149.979
63.18000 147.977
63.35000 153.357
63.52000 154.041
63.69000 139.099
63.86000 156.274
64.03000 149.234
64.20000 160.301
64.37000 156.801
64.54000 166.610
64.71000 164.591
64.88000 163.005
65.05000 189.157
65.22000 208.334
65.39000 231.654
65.56000 291.525
65.73000 582.003
65.90000 1006.256
66.07000 364.882
66.24000 293.858
66.41000 435.622
66.58000 320.943
66.75000 292.130
66.92000 318.780
67.09000 353.739
67.26000 368.126
67.43000 368.326
67.60000 425.232
67.77000 453.722
67.94000 484.976
68.11000 525.936
68.28000 582.815
68.45000 673.736
68.62000 948.760
68.79000 1666.914
68.96000 10329.503
69.13000 49642.566
69.30000 29286.736
69.47000 7150.986
69.64000 1125.779
69.81000 751.778
69.98000 641.170
70.00000 632.142

File: BTO_Mapping_Theta2Theta_24-09-2025_001_08_27-406_12-202.xy
20.00000 551.113
20.17000 564.198
20.34000 566.272
20.51000 554.728
20.68000 552.534
20.85000 546.919
21.02000 554.979
21.19000 559.817
21.36000 539.423
21.53000 535.664
21.70000 544.976
21.87000 585.993
22.04000 593.287
22.21000 597.878
22.38000 577.442
22.55000 546.579
22.72000 524.502
22.89000 519.233
23.06000 507.363
23.23000 503.686
23.40000 518.218
23.57000 520.012
23.74000 520.309
23.91000 493.902
24.08000 488.691
24.25000 497.174
24.42000 503.814
24.59000 469.100
24.76000 511.065
24.93000 468.079
25.10000 473.959
25.27000 475.372
25.44000 457.422
25.61000 445.182
25.78000 476.622
25.95000 459.554
26.12000 451.352
26.29000 452.361
26.46000 444.849
26.63000 441.125
26.80000 459.763
26.97000 430.881
27.14000 432.906
27.31000 449.490
27.48000 424.979
27.65000 443.338
27.82000 424.181
27.99000 442.103
28.16000 444.067
28.33000 435.554
28.50000 412.540
28.67000 413.540
28.84000 427.019
29.01000 431.688
29.18000 402.474
29.35000 416.020
29.52000 415.331
29.69000 416.691
29.86000 408.986
30.03000 412.135
30.20000 443.439
30.37000 416.874
30.54000 413.152
30.71000 421.892
30.88000 471.186
31.05000 566.357
31.22000 933.231
31.39000 1357.674
31.56000 1030.290
31.73000 586.765
31.90000 440.683
32.07000 416.932
32.24000 418.325
32.41000 392.400
32.58000 373.211
32.75000 379.533
32.92000 448.404
33.09000 407.179
33.26000 365.664
33.43000 370.981
33.60000 347.348
33.77000 345.425
33.94000 334.198
34.11000 346.840
34.28000 332.050
34.45000 335.310
34.62000 318.016
34.79000 328.030
34.96000 308.633
35.13000 325.406
35.30000 303.796
35.47000 316.784
35.64000 316.390
35.81000 300.673
35.98000 313.807
36.15000 306.411
36.32000 306.967
36.49000 288.291
36.66000 294.690
36.83000 297.591
37.00000 316.014
37.17000 306.693
37.34000 300.885
37.51000 307.038
37.68000 300.963
37.85000 299.547
38.02000 311.209
38.19000 311.281
38.36000 320.674
38.53000 592.854
38.70000 1265.781
38.87000 1022.420
39.04000 408.655
39.21000 294.339
39.38000 300.052
39.55000 278.546
39.72000 275.708
39.89000 262.636
40.06000 260.459
40.23000 265.445
40.40000 253.991
40.57000 261.884
40.74000 258.034
40.91000 242.623
41.08000 247.154
41.25000 239.826
41.42000 240.310
41.59000 236.112
41.76000 232.895
41.93000 236.834
42.10000 235.385
42.27000 238.279
42.44000 234.162
42.61000 231.144
42.78000 233.266
42.95000 220.854
43.12000 214.039
43.29000 221.881
43.46000 229.010
43.63000 225.590
43.80000 220.025
43.97000 220.407
44.14000 225.088
44.31000 225.001
44.48000 223.064
44.65000 240.953
44.82000 249.611
44.99000 259.216
45.16000 287.818
45.33000 258.426
45.50000 240.351
45.67000 229.561
45.84000 212.055
46.01000 201.863
46.18000 193.936
46.35000 221.266
46.52000 198.870
46.69000 208.830
46.86000 191.609
47.03000 192.416
47.20000 190.645
47.37000 198.781
47.54000 183.726
47.71000 190.426
47.88000 192.149
48.05000 194.923
48.22000 175.822
48.39000 179.634
48.56000 181.112
48.73000 181.342
48.90000 183.367
49.07000 169.677
49.24000 176.868
49.41000 182.400
49.58000 176.113
49.75000 191.505
49.92000 172.092
50.09000 170.521
50.26000 168.038
50.43000 189.728
50.60000 185.929
50.77000 193.566
50.94000 172.744
51.11000 177.676
51.28000 149.487
51.45000 152.287
51.62000 163.863
51.79000 164.927
51.96000 164.537
52.13000 161.545
52.30000 157.652
52.47000 169.383
52.64000 158.437
52.81000 154.095
52.98000 165.660
53.15000 160.410
53.32000 162.186
53.49000 163.269
53.66000 166.153
53.83000 151.128
54.00000 164.204
54.17000 156.173
54.34000 153.255
54.51000 157.587
54.68000 165.588
54.85000 154.850
55.02000 162.207
55.19000 167.637
55.36000 180.342
55.53000 215.796
55.70000 354.805
55.87000 632.092
56.04000 653.569
56.21000 447.662
56.38000 242.665
56.55000 191.058
56.72000 165.992
56.89000 163.947
57.06000 147.982
57.23000 147.605
57.40000 153.082
57.57000 151.748
57.74000 147.921
57.91000 141.150
58.08000 139.907
58.25000 155.201
58.42000 137.625
58.59000 137.494
58.76000 140.097
58.93000 126.610
59.10000 136.862
59.27000 139.516
59.44000 136.770
59.61000 136.332
59.78000 134.020
59.95000 123.321
60.12000 125.203
60.29000 137.457
60.46000 137.436
60.63000 137.643
60.80000 127.590
60.97000 125.648
61.14000 134.883
61.31000 131.738
61.48000 140.652
61.65000 250.547
61.82000 193.899
61.99000 138.282
62.16000 134.609
62.33000 144.405
62.50000 144.594
62.67000 149.478
62.84000 133.158
63.01000 147.724
63.18000 148.492
63.35000 148.286
63.52000 145.926
63.69000 146.530
63.86000 148.601
64.03000 163.085
64.20000 158.966
64.37000 153.394
64.54000 170.198
64.71000 181.226
64.88000 170.414
65.05000 191.697
65.22000 199.032
65.39000 233.244
65.56000 262.790
65.73000 545.525
65.90000 1061.501
66.07000 388.121
66.24000 319.191
66.41000 433.771
66.58000 332.456
66.75000 315.816
66.92000 322.912
67.09000 352.897
67.26000 373.245
67.43000 376.808
67.60000 427.149
67.77000 472.672
67.94000 510.714
68.11000 541.334
68.28000 582.151
68.45000 702.538
68.62000 990.863
68.79000 1730.159
68.96000 10279.989
69.13000 53295.781
69.30000 31600.014
69.47000 8067.210
69.64000 1171.067
69.81000 821.905
69.98000 662.905
70.00000 650.219