Folder: Master-Thesis/XRD/XRD/24-09-2025 Dep 3/XY Data (part 3)

File: BTO_Mapping_Theta2Theta_24-09-2025_001_17_12-361_38-042.xy
20.00000 554.333
20.17000 551.223
20.34000 544.116
20.51000 534.633
20.68000 541.119
20.85000 558.885
21.02000 542.726
21.19000 561.151
21.36000 543.798
21.53000 546.450
21.70000 534.837
21.87000 561.489
22.04000 599.718
22.21000 593.531
22.38000 566.482
22.55000 527.961
22.72000 512.784
22.89000 518.943
23.06000 499.411
23.23000 499.798
23.40000 504.851
23.57000 488.976
23.74000 495.972
23.91000 504.204
24.08000 492.086
24.25000 491.744
24.42000 472.987
24.59000 476.525
24.76000 470.624
24.93000 474.469
25.10000 453.919
25.27000 459.854
25.44000 477.173
25.61000 459.590
25.78000 460.290
25.95000 461.686
26.12000 459.256
26.29000 481.356
26.46000 431.098
26.63000 410.607
26.80000 424.132
26.97000 434.320
27.14000 448.316
27.31000 418.943
27.48000 426.227
27.65000 423.385
27.82000 418.428
27.99000 433.264
28.16000 421.088
28.33000 421.558
28.50000 434.610
28.67000 400.928
28.84000 403.551
29.01000 396.148
29.18000 413.310
29.35000 413.619
29.52000 391.325
29.69000 402.910
29.86000 399.810
30.03000 416.038
30.20000 414.678
30.37000 425.214
30.54000 407.978
30.71000 382.640
30.88000 423.264
31.05000 503.653
31.22000 849.034
31.39000 1547.431
31.56000 1149.276
31.73000 652.151
31.90000 457.896
32.07000 404.904
32.24000 402.492
32.41000 371.558
32.58000 381.043
32.75000 367.297
32.92000 460.823
33.09000 392.175
33.26000 340.573
33.43000 340.578
33.60000 337.533
33.77000 340.149
33.94000 331.663
34.11000 324.454
34.28000 310.984
34.45000 330.988
34.62000 326.634
34.79000 323.846
34.96000 310.696
35.13000 324.084
35.30000 316.733
35.47000 306.139
35.64000 306.780
35.81000 299.495
35.98000 289.607
36.15000 295.706
36.32000 321.212
36.49000 290.874
36.66000 302.321
36.83000 290.568
37.00000 295.097
37.17000 298.956
37.34000 295.274
37.51000 289.274
37.68000 287.032
37.85000 297.582
38.02000 304.752
38.19000 295.589
38.36000 326.501
38.53000 546.725
38.70000 1341.674
38.87000 1243.857
39.04000 478.986
39.21000 301.085
39.38000 270.894
39.55000 271.407
39.72000 267.640
39.89000 262.238
40.06000 264.646
40.23000 258.775
40.40000 261.093
40.57000 251.132
40.74000 252.432
40.91000 240.146
41.08000 251.912
41.25000 228.189
41.42000 247.242
41.59000 245.176
41.76000 242.130
41.93000 244.174
42.10000 241.242
42.27000 236.599
42.44000 232.099
42.61000 231.304
42.78000 236.032
42.95000 216.064
43.12000 226.448
43.29000 226.019
43.46000 225.263
43.63000 223.089
43.80000 208.086
43.97000 225.839
44.14000 214.132
44.31000 220.455
44.48000 216.661
44.65000 224.867
44.82000 241.827
44.99000 257.791
45.16000 282.306
45.33000 258.949
45.50000 235.232
45.67000 238.613
45.84000 229.815
46.01000 217.347
46.18000 203.066
46.35000 206.282
46.52000 209.636
46.69000 201.262
46.86000 194.045
47.03000 193.207
47.20000 185.352
47.37000 190.957
47.54000 197.842
47.71000 191.587
47.88000 191.507
48.05000 187.689
48.22000 186.188
48.39000 186.276
48.56000 186.961
48.73000 183.243
48.90000 173.964
49.07000 190.393
49.24000 178.967
49.41000 173.445
49.58000 180.244
49.75000 175.266
49.92000 179.996
50.09000 183.097
50.26000 177.170
50.43000 178.738
50.60000 171.717
50.77000 190.286
50.94000 194.299
51.11000 171.033
51.28000 177.977
51.45000 166.885
51.62000 174.489
51.79000 141.805
51.96000 167.635
52.13000 151.093
52.30000 167.545
52.47000 169.733
52.64000 161.954
52.81000 171.342
52.98000 155.504
53.15000 157.495
53.32000 170.149
53.49000 158.388
53.66000 153.091
53.83000 165.209
54.00000 164.728
54.17000 151.001
54.34000 159.168
54.51000 156.116
54.68000 156.462
54.85000 169.867
55.02000 158.066
55.19000 150.529
55.36000 173.410
55.53000 194.920
55.70000 310.226
55.87000 647.228
56.04000 835.382
56.21000 598.572
56.38000 311.374
56.55000 186.943
56.72000 167.503
56.89000 148.392
57.06000 141.963
57.23000 146.149
57.40000 143.806
57.57000 150.645
57.74000 146.001
57.91000 140.455
58.08000 143.379
58.25000 132.669
58.42000 129.440
58.59000 135.648
58.76000 132.662
58.93000 138.588
59.10000 135.400
59.27000 136.652
59.44000 134.395
59.61000 145.146
59.78000 128.911
59.95000 126.865
60.12000 129.404
60.29000 143.484
60.46000 135.312
60.63000 128.121
60.80000 137.183
60.97000 133.040
61.14000 140.585
61.31000 131.846
61.48000 142.319
61.65000 248.337
61.82000 203.538
61.99000 142.955
62.16000 138.485
62.33000 130.927
62.50000 140.856
62.67000 144.062
62.84000 149.728
63.01000 149.009
63.18000 147.305
63.35000 139.334
63.52000 142.291
63.69000 153.434
63.86000 156.029
64.03000 146.464
64.20000 144.838
64.37000 151.218
64.54000 161.320
64.71000 168.124
64.88000 185.041
65.05000 187.184
65.22000 206.001
65.39000 235.954
65.56000 275.971
65.73000 544.924
65.90000 1023.989
66.07000 382.140
66.24000 284.442
66.41000 428.710
66.58000 351.230
66.75000 317.509
66.92000 310.181
67.09000 335.860
67.26000 364.076
67.43000 381.888
67.60000 411.258
67.77000 444.869
67.94000 486.501
68.11000 521.914
68.28000 582.694
68.45000 694.292
68.62000 924.634
68.79000 1651.982
68.96000 8887.521
69.13000 49994.285
69.30000 30541.242
69.47000 8262.871
69.64000 1136.643
69.81000 741.314
69.98000 623.338
70.00000 627.999

File: BTO_Mapping_Theta2Theta_24-09-2025_001_19_-2-091_19-890.xy
20.00000 559.707
20.17000 553.934
20.34000 562.334
20.51000 553.558
20.68000 574.682
20.85000 544.103
21.02000 563.273
21.19000 558.182
21.36000 549.549
21.53000 547.928
21.70000 570.789
21.87000 598.660
22.04000 670.344
22.21000 644.991
22.38000 578.027
22.55000 541.308
22.72000 543.709
22.89000 529.119
23.06000 498.860
23.23000 520.440
23.40000 481.066
23.57000 499.687
23.74000 500.175
23.91000 492.546
24.08000 499.435
24.25000 468.553
24.42000 494.619
24.59000 487.344
24.76000 477.070
24.93000 479.025
25.10000 479.538
25.27000 468.756
25.44000 478.679
25.61000 450.432
25.78000 471.226
25.95000 448.357
26.12000 472.770
26.29000 450.165
26.46000 450.652
26.63000 460.243
26.80000 439.590
26.97000 440.652
27.14000 442.911
27.31000 446.897
27.48000 445.627
27.65000 414.487
27.82000 423.433
27.99000 423.288
28.16000 427.624
28.33000 429.837
28.50000 439.992
28.67000 414.692
28.84000 418.363
29.01000 434.751
29.18000 406.925
29.35000 389.010
29.52000 411.116
29.69000 411.640
29.86000 443.110
30.03000 451.683
30.20000 437.770
30.37000 420.878
30.54000 434.101
30.71000 433.324
30.88000 470.497
31.05000 604.252
31.22000 1571.485
31.39000 2972.871
31.56000 1926.792
31.73000 755.966
31.90000 498.143
32.07000 426.216
32.24000 408.669
32.41000 403.006
32.58000 380.314
32.75000 366.591
32.92000 476.323
33.09000 415.161
33.26000 351.695
33.43000 364.671
33.60000 342.359
33.77000 329.504
33.94000 335.061
34.11000 324.687
34.28000 331.584
34.45000 338.192
34.62000 317.848
34.79000 328.809
34.96000 311.593
35.13000 327.936
35.30000 307.469
35.47000 314.228
35.64000 311.137
35.81000 307.845
35.98000 298.810
36.15000 290.418
36.32000 302.238
36.49000 294.119
36.66000 281.974
36.83000 296.455
37.00000 299.325
37.17000 315.714
37.34000 300.593
37.51000 294.319
37.68000 295.002
37.85000 303.394
38.02000 302.662
38.19000 308.954
38.36000 377.598
38.53000 700.970
38.70000 1543.429
38.87000 1103.125
39.04000 425.349
39.21000 315.776
39.38000 294.107
39.55000 279.195
39.72000 280.281
39.89000 273.170
40.06000 275.775
40.23000 263.862
40.40000 251.171
40.57000 247.848
40.74000 239.026
40.91000 241.632
41.08000 250.073
41.25000 244.884
41.42000 242.036
41.59000 236.629
41.76000 244.323
41.93000 232.933
42.10000 246.007
42.27000 234.050
42.44000 234.475
42.61000 231.576
42.78000 221.899
42.95000 231.118
43.12000 230.466
43.29000 220.339
43.46000 228.955
43.63000 227.814
43.80000 220.051
43.97000 216.121
44.14000 221.778
44.31000 220.255
44.48000 230.499
44.65000 227.964
44.82000 257.630
44.99000 320.152
45.16000 323.545
45.33000 296.034
45.50000 265.975
45.67000 252.651
45.84000 229.857
46.01000 207.705
46.18000 198.968
46.35000 203.585
46.52000 215.605
46.69000 206.838
46.86000 197.476
47.03000 200.751
47.20000 197.125
47.37000 187.342
47.54000 192.431
47.71000 194.095
47.88000 187.768
48.05000 177.394
48.22000 178.143
48.39000 176.569
48.56000 188.028
48.73000 173.749
48.90000 181.944
49.07000 171.816
49.24000 177.503
49.41000 178.598
49.58000 162.644
49.75000 176.550
49.92000 178.694
50.09000 182.261
50.26000 178.723
50.43000 196.813
50.60000 233.877
50.77000 244.817
50.94000 228.914
51.11000 192.883
51.28000 182.304
51.45000 171.535
51.62000 170.837
51.79000 177.772
51.96000 165.947
52.13000 152.590
52.30000 162.530
52.47000 163.839
52.64000 164.353
52.81000 159.223
52.98000 157.952
53.15000 151.424
53.32000 166.372
53.49000 176.456
53.66000 161.473
53.83000 160.067
54.00000 165.981
54.17000 157.021
54.34000 155.250
54.51000 148.166
54.68000 138.075
54.85000 166.882
55.02000 170.648
55.19000 156.438
55.36000 176.755
55.53000 217.093
55.70000 351.209
55.87000 725.029
56.04000 802.411
56.21000 472.419
56.38000 255.628
56.55000 182.125
56.72000 164.164
56.89000 150.515
57.06000 159.459
57.23000 148.700
57.40000 151.449
57.57000 146.703
57.74000 137.665
57.91000 147.438
58.08000 132.005
58.25000 124.642
58.42000 150.199
58.59000 128.226
58.76000 137.462
58.93000 143.824
59.10000 133.277
59.27000 139.803
59.44000 141.500
59.61000 134.759
59.78000 125.100
59.95000 128.011
60.12000 134.117
60.29000 129.131
60.46000 130.255
60.63000 130.041
60.80000 129.406
60.97000 124.456
61.14000 139.791
61.31000 137.230
61.48000 149.929
61.65000 272.609
61.82000 197.012
61.99000 138.600
62.16000 142.721
62.33000 136.325
62.50000 142.587
62.67000 144.096
62.84000 144.720
63.01000 142.682
63.18000 146.432
63.35000 140.650
63.52000 145.275
63.69000 145.473
63.86000 144.375
64.03000 156.003
64.20000 159.927
64.37000 162.646
64.54000 170.433
64.71000 171.631
64.88000 180.576
65.05000 211.553
65.22000 226.361
65.39000 292.621
65.56000 369.389
65.73000 712.176
65.90000 1173.442
66.07000 405.881
66.24000 328.858
66.41000 443.826
66.58000 363.605
66.75000 321.500
66.92000 339.638
67.09000 337.232
67.26000 382.918
67.43000 384.351
67.60000 419.430
67.77000 463.910
67.94000 489.544
68.11000 550.113
68.28000 595.636
68.45000 700.216
68.62000 989.511
68.79000 1840.132
68.96000 11966.414
69.13000 56477.746
69.30000 33500.746
69.47000 8133.632
69.64000 1215.578
69.81000 817.052
69.98000 682.182
70.00000 659.555

File: BTO_Mapping_Theta2Theta_24-09-2025_001_27_-16-180_11-756.xy
20.00000 568.857
20.17000 562.198
20.34000 560.225
20.51000 541.004
20.68000 530.735
20.85000 567.448
21.02000 536.740
21.19000 592.867
21.36000 562.893
21.53000 560.039
21.70000 565.135
21.87000 693.570
22.04000 901.076
22.21000 747.422
22.38000 596.912
22.55000 543.715
22.72000 516.448
22.89000 521.023
23.06000 523.148
23.23000 519.901
23.40000 500.192
23.57000 500.691
23.74000 496.696
23.91000 508.647
24.08000 506.402
24.25000 469.888
24.42000 486.228
24.59000 497.752
24.76000 473.256
24.93000 471.643
25.10000 471.955
25.27000 462.558
25.44000 464.430
25.61000 479.377
25.78000 474.019
25.95000 470.650
26.12000 448.507
26.29000 454.306
26.46000 471.345
26.63000 445.479
26.80000 450.354
26.97000 453.786
27.14000 448.721
27.31000 443.128
27.48000 438.757
27.65000 437.938
27.82000 437.740
27.99000 438.952
28.16000 412.346
28.33000 430.539
28.50000 422.653
28.67000 423.157
28.84000 428.283
29.01000 422.478
29.18000 423.993
29.35000 416.360
29.52000 421.556
29.69000 442.959
29.86000 420.180
30.03000 459.116
30.20000 463.500
30.37000 434.655
30.54000 442.358
30.71000 454.346
30.88000 509.038
31.05000 757.686
31.22000 2080.553
31.39000 3454.093
31.56000 1856.757
31.73000 721.312
31.90000 488.471
32.07000 419.391
32.24000 420.827
32.41000 403.170
32.58000 390.659
32.75000 387.107
32.92000 574.771
33.09000 454.622
33.26000 356.386
33.43000 346.845
33.60000 345.089
33.77000 331.438
33.94000 342.360
34.11000 336.198
34.28000 335.921
34.45000 329.865
34.62000 319.377
34.79000 308.400
34.96000 328.603
35.13000 315.215
35.30000 311.655
35.47000 311.612
35.64000 309.994
35.81000 311.659
35.98000 307.845
36.15000 296.734
36.32000 317.590
36.49000 291.628
36.66000 308.845
36.83000 313.872
37.00000 318.512
37.17000 294.151
37.34000 293.058
37.51000 290.529
37.68000 299.468
37.85000 309.331
38.02000 305.700
38.19000 300.113
38.36000 391.308
38.53000 806.307
38.70000 1236.788
38.87000 733.755
39.04000 364.903
39.21000 287.780
39.38000 282.329
39.55000 282.912
39.72000 295.884
39.89000 251.899
40.06000 254.431
40.23000 270.176
40.40000 252.618
40.57000 255.193
40.74000 261.742
40.91000 250.584
41.08000 244.997
41.25000 253.542
41.42000 239.548
41.59000 237.212
41.76000 240.438
41.93000 252.161
42.10000 227.097
42.27000 234.953
42.44000 229.622
42.61000 227.081
42.78000 228.160
42.95000 223.956
43.12000 222.281
43.29000 226.969
43.46000 230.907
43.63000 216.945
43.80000 227.674
43.97000 222.516
44.14000 215.573
44.31000 225.936
44.48000 227.616
44.65000 261.283
44.82000 342.076
44.99000 518.714
45.16000 461.235
45.33000 340.235
45.50000 276.223
45.67000 258.798
45.84000 223.325
46.01000 225.500
46.18000 210.317
46.35000 213.947
46.52000 196.883
46.69000 207.767
46.86000 204.752
47.03000 197.020
47.20000 186.976
47.37000 193.829
47.54000 188.510
47.71000 184.611
47.88000 205.804
48.05000 182.408
48.22000 187.932
48.39000 183.772
48.56000 175.738
48.73000 185.369
48.90000 190.292
49.07000 172.771
49.24000 178.720
49.41000 177.806
49.58000 174.397
49.75000 162.098
49.92000 172.965
50.09000 190.286
50.26000 188.281
50.43000 217.300
50.60000 283.870
50.77000 256.328
50.94000 226.351
51.11000 201.231
51.28000 193.927
51.45000 181.946
51.62000 168.878
51.79000 167.026
51.96000 161.268
52.13000 166.470
52.30000 161.755
52.47000 162.532
52.64000 157.711
52.81000 163.089
52.98000 153.990
53.15000 166.708
53.32000 167.751
53.49000 161.813
53.66000 153.527
53.83000 148.303
54.00000 151.922
54.17000 154.222
54.34000 152.681
54.51000 163.684
54.68000 148.476
54.85000 164.456
55.02000 163.525
55.19000 167.390
55.36000 178.614
55.53000 240.177
55.70000 455.115
55.87000 808.228
56.04000 730.079
56.21000 361.200
56.38000 228.555
56.55000 178.814
56.72000 161.878
56.89000 164.422
57.06000 150.522
57.23000 143.654
57.40000 156.098
57.57000 142.618
57.74000 146.877
57.91000 135.553
58.08000 141.927
58.25000 137.738
58.42000 139.208
58.59000 129.667
58.76000 141.226
58.93000 139.194
59.10000 134.130
59.27000 135.916
59.44000 131.121
59.61000 138.675
59.78000 138.168
59.95000 135.700
60.12000 140.058
60.29000 125.876
60.46000 134.969
60.63000 126.274
60.80000 132.594
60.97000 131.041
61.14000 154.305
61.31000 138.178
61.48000 152.655
61.65000 301.066
61.82000 226.149
61.99000 139.568
62.16000 139.796
62.33000 138.214
62.50000 149.207
62.67000 165.514
62.84000 135.750
63.01000 145.322
63.18000 140.264
63.35000 139.791
63.52000 158.545
63.69000 147.738
63.86000 140.855
64.03000 151.728
64.20000 169.266
64.37000 166.308
64.54000 157.646
64.71000 186.665
64.88000 187.011
65.05000 214.094
65.22000 245.237
65.39000 334.650
65.56000 424.029
65.73000 834.224
65.90000 1364.713
66.07000 429.652
66.24000 352.310
66.41000 523.238
66.58000 344.357
66.75000 336.509
66.92000 356.420
67.09000 383.650
67.26000 403.369
67.43000 444.341
67.60000 469.038
67.77000 497.188
67.94000 533.513
68.11000 577.647
68.28000 624.488
68.45000 764.513
68.62000 1172.506
68.79000 2350.850
68.96000 17541.422
69.13000 72348.008
69.30000 42232.277
69.47000 9757.778
69.64000 1397.352
69.81000 915.570
69.98000 700.455
70.00000 714.333

File: BTO_Mapping_Theta2Theta_24-09-2025_001_30_-9-781_2-079.xy
20.00000 576.985
20.17000 557.058
20.34000 579.291
20.51000 553.863
20.68000 536.420
20.85000 561.908
21.02000 556.312
21.19000 557.175
21.36000 552.261
21.53000 534.635
21.70000 563.660
21.87000 650.249
22.04000 788.565
22.21000 689.824
22.38000 585.529
22.55000 548.712
22.72000 543.319
22.89000 514.457
23.06000 524.044
23.23000 500.718
23.40000 494.918
23.57000 489.396
23.74000 511.696
23.91000 503.877
24.08000 499.516
24.25000 472.591
24.42000 492.680
24.59000 500.197
24.76000 494.374
24.93000 496.032
25.10000 477.783
25.27000 460.804
25.44000 473.969
25.61000 452.509
25.78000 449.981
25.95000 480.827
26.12000 460.200
26.29000 473.998
26.46000 460.894
26.63000 427.504
26.80000 458.488
26.97000 453.739
27.14000 429.317
27.31000 438.389
27.48000 449.269
27.65000 433.161
27.82000 422.232
27.99000 430.312
28.16000 434.193
28.33000 450.533
28.50000 417.826
28.67000 436.921
28.84000 430.446
29.01000 428.673
29.18000 429.621
29.35000 411.899
29.52000 418.354
29.69000 404.636
29.86000 444.372
30.03000 449.588
30.20000 452.325
30.37000 443.045
30.54000 436.385
30.71000 452.965
30.88000 506.324
31.05000 742.255
31.22000 2128.440
31.39000 3720.158
31.56000 2006.385
31.73000 733.556
31.90000 491.747
32.07000 413.360
32.24000 407.364
32.41000 394.121
32.58000 391.025
32.75000 398.469
32.92000 548.881
33.09000 450.967
33.26000 349.998
33.43000 345.934
33.60000 342.510
33.77000 337.357
33.94000 337.647
34.11000 327.611
34.28000 338.364
34.45000 312.104
34.62000 339.763
34.79000 303.866
34.96000 324.077
35.13000 327.672
35.30000 322.244
35.47000 308.332
35.64000 321.528
35.81000 304.716
35.98000 309.860
36.15000 291.755
36.32000 289.221
36.49000 314.565
36.66000 291.274
36.83000 302.196
37.00000 300.475
37.17000 304.389
37.34000 299.923
37.51000 293.228
37.68000 285.048
37.85000 310.401
38.02000 309.391
38.19000 303.978
38.36000 390.029
38.53000 830.039
38.70000 1357.753
38.87000 830.138
39.04000 378.374
39.21000 300.393
39.38000 297.222
39.55000 267.712
39.72000 277.873
39.89000 269.265
40.06000 257.103
40.23000 256.739
40.40000 264.736
40.57000 255.604
40.74000 239.858
40.91000 247.418
41.08000 246.734
41.25000 239.729
41.42000 241.253
41.59000 251.118
41.76000 241.224
41.93000 239.735
42.10000 227.506
42.27000 235.554
42.44000 231.141
42.61000 223.459
42.78000 235.539
42.95000 227.954
43.12000 233.785
43.29000 235.903
43.46000 224.589
43.63000 233.893
43.80000 232.894
43.97000 221.296
44.14000 229.477
44.31000 218.614
44.48000 236.547
44.65000 228.223
44.82000 292.675
44.99000 423.131
45.16000 398.651
45.33000 323.477
45.50000 279.249
45.67000 248.317
45.84000 229.436
46.01000 212.606
46.18000 197.255
46.35000 209.505
46.52000 198.370
46.69000 201.872
46.86000 198.032
47.03000 187.613
47.20000 199.340
47.37000 198.006
47.54000 188.205
47.71000 184.222
47.88000 188.677
48.05000 188.957
48.22000 187.731
48.39000 176.555
48.56000 195.266
48.73000 195.239
48.90000 180.114
49.07000 177.597
49.24000 169.034
49.41000 173.100
49.58000 165.277
49.75000 177.961
49.92000 181.160
50.09000 186.430
50.26000 187.352
50.43000 203.242
50.60000 262.953
50.77000 277.193
50.94000 226.381
51.11000 186.935
51.28000 157.911
51.45000 184.929
51.62000 169.774
51.79000 160.397
51.96000 175.871
52.13000 166.687
52.30000 167.223
52.47000 160.270
52.64000 153.883
52.81000 159.470
52.98000 152.992
53.15000 159.135
53.32000 173.864
53.49000 156.331
53.66000 166.392
53.83000 148.199
54.00000 148.940
54.17000 157.644
54.34000 155.415
54.51000 167.381
54.68000 143.536
54.85000 156.183
55.02000 166.916
55.19000 162.510
55.36000 187.485
55.53000 230.434
55.70000 435.251
55.87000 756.275
56.04000 721.810
56.21000 377.662
56.38000 241.792
56.55000 188.030
56.72000 166.284
56.89000 150.962
57.06000 158.669
57.23000 139.940
57.40000 157.674
57.57000 149.220
57.74000 145.205
57.91000 139.658
58.08000 134.477
58.25000 135.960
58.42000 126.879
58.59000 143.925
58.76000 146.856
58.93000 132.853
59.10000 130.749
59.27000 135.436
59.44000 132.327
59.61000 146.350
59.78000 139.802
59.95000 125.173
60.12000 129.468
60.29000 140.956
60.46000 133.118
60.63000 137.960
60.80000 126.324
60.97000 130.801
61.14000 126.191
61.31000 138.141
61.48000 139.687
61.65000 288.294
61.82000 195.940
61.99000 136.878
62.16000 147.825
62.33000 133.406
62.50000 138.093
62.67000 148.235
62.84000 151.333
63.01000 150.595
63.18000 136.267
63.35000 157.420
63.52000 141.906
63.69000 146.173
63.86000 153.711
64.03000 167.570
64.20000 150.174
64.37000 167.177
64.54000 160.994
64.71000 177.310
64.88000 185.420
65.05000 199.612
65.22000 260.791
65.39000 342.268
65.56000 424.901
65.73000 782.315
65.90000 1253.795
66.07000 406.930
66.24000 350.970
66.41000 488.507
66.58000 367.968
66.75000 320.913
66.92000 349.027
67.09000 361.795
67.26000 401.190
67.43000 412.728
67.60000 424.586
67.77000 481.756
67.94000 509.683
68.11000 541.390
68.28000 635.766
68.45000 747.445
68.62000 1073.421
68.79000 2077.904
68.96000 15322.986
69.13000 64500.063
69.30000 37277.164
69.47000 8540.148
69.64000 1283.767
69.81000 842.131
69.98000 717.491
70.00000 696.578

File: BTO_Mapping_Theta2Theta_24-09-2025_001_31_-19-563_4-158.xy
20.00000 560.657
20.17000 580.010
20.34000 563.967
20.51000 564.315
20.68000 572.421
20.85000 567.583
21.02000 571.014
21.19000 550.370
21.36000 549.024
21.53000 546.317
21.70000 600.529
21.87000 753.051
22.04000 945.641
22.21000 727.630
22.38000 586.348
22.55000 550.816
22.72000 538.981
22.89000 513.269
23.06000 513.194
23.23000 528.587
23.40000 506.357
23.57000 484.528
23.74000 494.799
23.91000 512.879
24.08000 500.232
24.25000 505.753
24.42000 485.466
24.59000 500.287
24.76000 497.162
24.93000 470.467
25.10000 494.080
25.27000 472.924
25.44000 493.870
25.61000 470.372
25.78000 458.505
25.95000 458.965
26.12000 450.854
26.29000 460.871
26.46000 468.578
26.63000 447.923
26.80000 452.819
26.97000 454.945
27.14000 440.502
27.31000 439.155
27.48000 427.456
27.65000 441.751
27.82000 423.639
27.99000 429.079
28.16000 434.957
28.33000 428.249
28.50000 445.072
28.67000 408.250
28.84000 426.001
29.01000 419.592
29.18000 423.659
29.35000 421.980
29.52000 416.452
29.69000 424.887
29.86000 436.708
30.03000 471.034
30.20000 432.654
30.37000 438.222
30.54000 425.819
30.71000 448.763
30.88000 496.728
31.05000 780.393
31.22000 2198.945
31.39000 3382.058
31.56000 1765.441
31.73000 692.040
31.90000 479.753
32.07000 421.823
32.24000 416.531
32.41000 404.265
32.58000 391.115
32.75000 399.134
32.92000 595.286
33.09000 446.944
33.26000 355.420
33.43000 354.239
33.60000 349.531
33.77000 357.824
33.94000 333.551
34.11000 337.508
34.28000 334.243
34.45000 335.842
34.62000 326.182
34.79000 325.010
34.96000 313.537
35.13000 324.429
35.30000 313.117
35.47000 302.593
35.64000 318.908
35.81000 316.316
35.98000 306.384
36.15000 301.837
36.32000 290.408
36.49000 298.797
36.66000 302.600
36.83000 306.837
37.00000 300.169
37.17000 289.949
37.34000 288.287
37.51000 298.525
37.68000 288.573
37.85000 295.814
38.02000 315.234
38.19000 307.616
38.36000 418.200
38.53000 786.877
38.70000 1136.007
38.87000 681.883
39.04000 332.792
39.21000 285.041
39.38000 278.776
39.55000 277.414
39.72000 271.893
39.89000 268.869
40.06000 257.408
40.23000 262.793
40.40000 252.398
40.57000 255.373
40.74000 250.810
40.91000 253.603
41.08000 259.930
41.25000 260.548
41.42000 255.857
41.59000 248.649
41.76000 232.471
41.93000 248.036
42.10000 246.708
42.27000 235.934
42.44000 241.596
42.61000 228.851
42.78000 230.503
42.95000 231.489
43.12000 230.927
43.29000 226.735
43.46000 228.469
43.63000 225.067
43.80000 220.113
43.97000 228.262
44.14000 235.949
44.31000 230.668
44.48000 231.305
44.65000 271.573
44.82000 407.730
44.99000 580.110
45.16000 486.442
45.33000 339.246
45.50000 281.962
45.67000 259.421
45.84000 230.514
46.01000 209.669
46.18000 204.053
46.35000 208.680
46.52000 212.574
46.69000 200.954
46.86000 206.407
47.03000 204.873
47.20000 183.624
47.37000 196.322
47.54000 190.869
47.71000 189.633
47.88000 197.599
48.05000 192.663
48.22000 178.952
48.39000 185.139
48.56000 182.667
48.73000 184.099
48.90000 179.614
49.07000 184.652
49.24000 174.901
49.41000 185.669
49.58000 173.465
49.75000 189.306
49.92000 182.044
50.09000 186.690
50.26000 189.285
50.43000 232.182
50.60000 267.005
50.77000 290.748
50.94000 227.020
51.11000 196.954
51.28000 175.527
51.45000 181.350
51.62000 164.175
51.79000 173.014
51.96000 145.790
52.13000 157.717
52.30000 171.799
52.47000 161.623
52.64000 155.309
52.81000 152.096
52.98000 153.546
53.15000 171.564
53.32000 156.623
53.49000 168.733
53.66000 161.854
53.83000 164.997
54.00000 160.861
54.17000 156.337
54.34000 147.208
54.51000 148.656
54.68000 158.610
54.85000 158.518
55.02000 164.295
55.19000 174.306
55.36000 187.672
55.53000 262.476
55.70000 500.655
55.87000 839.745
56.04000 702.603
56.21000 386.536
56.38000 223.731
56.55000 182.494
56.72000 167.295
56.89000 161.978
57.06000 151.990
57.23000 146.416
57.40000 147.067
57.57000 148.306
57.74000 145.159
57.91000 141.402
58.08000 140.377
58.25000 148.912
58.42000 135.247
58.59000 135.982
58.76000 141.896
58.93000 135.605
59.10000 141.383
59.27000 139.278
59.44000 135.044
59.61000 131.289
59.78000 135.895
59.95000 130.187
60.12000 134.681
60.29000 137.813
60.46000 135.839
60.63000 134.770
60.80000 126.657
60.97000 135.915
61.14000 128.876
61.31000 149.139
61.48000 161.463
61.65000 336.470
61.82000 219.525
61.99000 144.883
62.16000 145.299
62.33000 138.957
62.50000 137.634
62.67000 150.340
62.84000 139.441
63.01000 149.822
63.18000 146.531
63.35000 132.338
63.52000 153.751
63.69000 159.367
63.86000 158.859
64.03000 153.103
64.20000 160.865
64.37000 167.991
64.54000 179.430
64.71000 176.201
64.88000 185.771
65.05000 205.443
65.22000 266.706
65.39000 356.094
65.56000 450.627
65.73000 866.353
65.90000 1469.313
66.07000 482.616
66.24000 364.002
66.41000 536.958
66.58000 391.970
66.75000 339.694
66.92000 362.069
67.09000 379.931
67.26000 401.476
67.43000 449.090
67.60000 483.658
67.77000 506.703
67.94000 585.363
68.11000 600.786
68.28000 678.697
68.45000 802.906
68.62000 1230.138
68.79000 2489.679
68.96000 19327.443
69.13000 77584.961
69.30000 45713.102
69.47000 10500.421
69.64000 1434.089
69.81000 919.608
69.98000 752.943
70.00000 745.108