Folder: Master-Thesis/XRD/XRD/24-09-2025 Dep 3/XY Data (part 5)

File: BTO_Mapping_Theta2Theta_24-09-2025_001_38_-8-090_-5-878.xy
20.00000 544.849
20.17000 599.378
20.34000 545.006
20.51000 577.383
20.68000 546.737
20.85000 566.443
21.02000 576.607
21.19000 544.009
21.36000 563.222
21.53000 512.106
21.70000 565.476
21.87000 641.950
22.04000 761.644
22.21000 682.099
22.38000 575.681
22.55000 542.777
22.72000 516.739
22.89000 524.174
23.06000 526.977
23.23000 507.227
23.40000 500.257
23.57000 498.688
23.74000 510.510
23.91000 502.222
24.08000 487.818
24.25000 481.078
24.42000 482.985
24.59000 492.800
24.76000 494.703
24.93000 477.950
25.10000 484.052
25.27000 475.130
25.44000 468.188
25.61000 470.216
25.78000 440.906
25.95000 475.542
26.12000 461.067
26.29000 434.895
26.46000 447.270
26.63000 458.773
26.80000 457.166
26.97000 463.501
27.14000 444.801
27.31000 423.043
27.48000 431.899
27.65000 427.043
27.82000 430.305
27.99000 424.792
28.16000 416.243
28.33000 449.051
28.50000 412.728
28.67000 426.653
28.84000 424.857
29.01000 420.627
29.18000 416.634
29.35000 417.373
29.52000 419.238
29.69000 406.648
29.86000 424.870
30.03000 455.598
30.20000 450.012
30.37000 427.487
30.54000 435.711
30.71000 452.579
30.88000 495.740
31.05000 779.471
31.22000 2127.360
31.39000 3613.612
31.56000 1979.763
31.73000 745.872
31.90000 488.512
32.07000 431.010
32.24000 392.856
32.41000 391.733
32.58000 380.799
32.75000 364.759
32.92000 510.774
33.09000 420.268
33.26000 345.303
33.43000 340.048
33.60000 343.149
33.77000 336.153
33.94000 328.987
34.11000 341.813
34.28000 332.685
34.45000 329.942
34.62000 327.102
34.79000 321.972
34.96000 308.257
35.13000 301.889
35.30000 303.891
35.47000 324.664
35.64000 302.689
35.81000 305.278
35.98000 312.887
36.15000 288.523
36.32000 299.204
36.49000 310.237
36.66000 317.060
36.83000 324.768
37.00000 302.236
37.17000 295.243
37.34000 303.707
37.51000 278.167
37.68000 304.000
37.85000 292.828
38.02000 297.699
38.19000 309.439
38.36000 404.577
38.53000 831.639
38.70000 1424.832
38.87000 880.497
39.04000 374.161
39.21000 295.377
39.38000 284.252
39.55000 282.005
39.72000 277.197
39.89000 270.343
40.06000 245.663
40.23000 255.760
40.40000 253.052
40.57000 263.724
40.74000 246.213
40.91000 243.376
41.08000 238.429
41.25000 245.920
41.42000 246.169
41.59000 229.181
41.76000 241.098
41.93000 242.727
42.10000 236.056
42.27000 238.932
42.44000 225.841
42.61000 234.466
42.78000 225.357
42.95000 235.233
43.12000 235.037
43.29000 240.473
43.46000 227.043
43.63000 217.385
43.80000 230.913
43.97000 228.689
44.14000 227.930
44.31000 218.746
44.48000 223.177
44.65000 246.998
44.82000 296.768
44.99000 399.668
45.16000 359.869
45.33000 310.659
45.50000 272.592
45.67000 257.616
45.84000 244.876
46.01000 218.338
46.18000 214.446
46.35000 211.752
46.52000 198.273
46.69000 197.508
46.86000 200.045
47.03000 206.293
47.20000 189.835
47.37000 190.563
47.54000 192.213
47.71000 196.607
47.88000 181.409
48.05000 198.414
48.22000 175.169
48.39000 166.848
48.56000 184.480
48.73000 171.255
48.90000 177.253
49.07000 174.932
49.24000 183.680
49.41000 171.828
49.58000 177.589
49.75000 185.159
49.92000 180.465
50.09000 174.450
50.26000 185.817
50.43000 215.226
50.60000 258.226
50.77000 251.300
50.94000 213.778
51.11000 192.605
51.28000 177.255
51.45000 172.149
51.62000 160.457
51.79000 154.362
51.96000 161.006
52.13000 165.026
52.30000 171.618
52.47000 159.454
52.64000 169.258
52.81000 170.423
52.98000 157.913
53.15000 151.645
53.32000 166.386
53.49000 167.862
53.66000 161.890
53.83000 160.223
54.00000 155.643
54.17000 155.321
54.34000 159.084
54.51000 157.425
54.68000 145.715
54.85000 150.663
55.02000 163.470
55.19000 170.646
55.36000 174.032
55.53000 240.326
55.70000 426.522
55.87000 794.928
56.04000 696.897
56.21000 398.964
56.38000 224.378
56.55000 185.329
56.72000 158.831
56.89000 160.804
57.06000 149.608
57.23000 142.895
57.40000 143.838
57.57000 136.788
57.74000 145.902
57.91000 144.680
58.08000 149.527
58.25000 134.166
58.42000 142.653
58.59000 142.465
58.76000 131.314
58.93000 131.112
59.10000 141.568
59.27000 139.118
59.44000 129.075
59.61000 131.664
59.78000 145.085
59.95000 128.169
60.12000 123.106
60.29000 126.206
60.46000 122.728
60.63000 131.555
60.80000 133.620
60.97000 131.591
61.14000 136.863
61.31000 142.261
61.48000 141.166
61.65000 280.452
61.82000 202.214
61.99000 137.695
62.16000 146.197
62.33000 145.481
62.50000 151.073
62.67000 141.977
62.84000 143.643
63.01000 141.752
63.18000 137.207
63.35000 160.973
63.52000 156.519
63.69000 158.746
63.86000 154.271
64.03000 150.216
64.20000 164.074
64.37000 176.623
64.54000 173.824
64.71000 178.466
64.88000 183.068
65.05000 200.389
65.22000 262.093
65.39000 353.654
65.56000 422.210
65.73000 801.045
65.90000 1262.289
66.07000 394.138
66.24000 326.669
66.41000 476.895
66.58000 324.037
66.75000 337.109
66.92000 332.206
67.09000 354.889
67.26000 388.314
67.43000 405.413
67.60000 441.020
67.77000 466.079
67.94000 518.317
68.11000 567.801
68.28000 608.377
68.45000 723.233
68.62000 1040.662
68.79000 2055.688
68.96000 14762.604
69.13000 62009.168
69.30000 35831.055
69.47000 8099.171
69.64000 1260.350
69.81000 825.574
69.98000 677.016
70.00000 656.719

File: BTO_Mapping_Theta2Theta_24-09-2025_001_44_-15-000_-25-981.xy
20.00000 569.158
20.17000 575.233
20.34000 533.493
20.51000 547.867
20.68000 558.255
20.85000 558.765
21.02000 561.568
21.19000 532.632
21.36000 564.259
21.53000 545.513
21.70000 570.306
21.87000 688.688
22.04000 792.386
22.21000 681.523
22.38000 596.609
22.55000 540.914
22.72000 535.358
22.89000 515.712
23.06000 516.649
23.23000 499.295
23.40000 524.349
23.57000 487.716
23.74000 497.245
23.91000 489.599
24.08000 493.293
24.25000 484.581
24.42000 484.318
24.59000 486.363
24.76000 474.199
24.93000 464.619
25.10000 478.696
25.27000 486.540
25.44000 448.202
25.61000 466.405
25.78000 468.603
25.95000 460.308
26.12000 457.796
26.29000 443.933
26.46000 442.441
26.63000 458.608
26.80000 448.372
26.97000 445.316
27.14000 435.643
27.31000 436.700
27.48000 431.922
27.65000 435.176
27.82000 409.292
27.99000 443.512
28.16000 432.183
28.33000 432.514
28.50000 412.608
28.67000 421.417
28.84000 420.154
29.01000 414.891
29.18000 413.041
29.35000 421.432
29.52000 407.521
29.69000 419.320
29.86000 439.318
30.03000 457.416
30.20000 447.121
30.37000 440.603
30.54000 441.365
30.71000 444.525
30.88000 527.633
31.05000 792.537
31.22000 2206.707
31.39000 3686.568
31.56000 1974.319
31.73000 738.839
31.90000 505.111
32.07000 437.983
32.24000 408.940
32.41000 376.793
32.58000 379.997
32.75000 392.365
32.92000 538.790
33.09000 435.105
33.26000 359.526
33.43000 349.159
33.60000 335.525
33.77000 344.170
33.94000 330.087
34.11000 333.947
34.28000 334.960
34.45000 316.950
34.62000 320.004
34.79000 319.727
34.96000 321.607
35.13000 298.359
35.30000 318.825
35.47000 315.636
35.64000 320.413
35.81000 299.897
35.98000 304.961
36.15000 304.438
36.32000 314.293
36.49000 300.872
36.66000 304.546
36.83000 299.267
37.00000 311.553
37.17000 305.407
37.34000 310.801
37.51000 294.954
37.68000 288.748
37.85000 289.088
38.02000 301.513
38.19000 329.161
38.36000 407.579
38.53000 853.272
38.70000 1411.499
38.87000 810.281
39.04000 364.113
39.21000 300.276
39.38000 286.966
39.55000 281.211
39.72000 258.298
39.89000 268.417
40.06000 263.236
40.23000 239.798
40.40000 253.918
40.57000 252.197
40.74000 256.209
40.91000 239.566
41.08000 248.766
41.25000 254.344
41.42000 255.395
41.59000 242.760
41.76000 249.323
41.93000 238.232
42.10000 238.447
42.27000 245.767
42.44000 235.530
42.61000 231.224
42.78000 227.782
42.95000 235.813
43.12000 237.012
43.29000 210.000
43.46000 227.182
43.63000 237.574
43.80000 220.199
43.97000 226.157
44.14000 226.178
44.31000 218.851
44.48000 236.331
44.65000 242.465
44.82000 305.869
44.99000 404.290
45.16000 401.284
45.33000 306.704
45.50000 269.718
45.67000 258.843
45.84000 221.421
46.01000 212.587
46.18000 215.560
46.35000 205.173
46.52000 192.755
46.69000 202.018
46.86000 209.340
47.03000 196.224
47.20000 191.965
47.37000 182.214
47.54000 189.104
47.71000 183.123
47.88000 191.373
48.05000 173.560
48.22000 181.532
48.39000 187.718
48.56000 181.103
48.73000 177.629
48.90000 189.893
49.07000 180.142
49.24000 182.174
49.41000 178.386
49.58000 180.696
49.75000 169.835
49.92000 179.013
50.09000 173.277
50.26000 183.871
50.43000 208.440
50.60000 264.987
50.77000 271.340
50.94000 202.811
51.11000 191.168
51.28000 169.526
51.45000 167.945
51.62000 164.908
51.79000 170.543
51.96000 158.169
52.13000 156.192
52.30000 157.095
52.47000 159.412
52.64000 155.802
52.81000 158.679
52.98000 169.015
53.15000 154.735
53.32000 160.070
53.49000 167.557
53.66000 156.788
53.83000 161.017
54.00000 159.064
54.17000 146.935
54.34000 161.220
54.51000 159.106
54.68000 151.438
54.85000 162.498
55.02000 177.223
55.19000 165.743
55.36000 189.310
55.53000 242.675
55.70000 464.697
55.87000 806.281
56.04000 750.739
56.21000 386.691
56.38000 245.400
56.55000 178.670
56.72000 158.609
56.89000 151.234
57.06000 148.119
57.23000 145.614
57.40000 151.403
57.57000 160.165
57.74000 138.792
57.91000 138.988
58.08000 132.151
58.25000 133.944
58.42000 141.957
58.59000 139.541
58.76000 137.899
58.93000 141.148
59.10000 138.609
59.27000 128.180
59.44000 132.651
59.61000 134.146
59.78000 129.789
59.95000 137.282
60.12000 131.448
60.29000 127.751
60.46000 134.136
60.63000 131.776
60.80000 137.902
60.97000 136.473
61.14000 138.740
61.31000 136.281
61.48000 152.268
61.65000 289.441
61.82000 210.182
61.99000 141.009
62.16000 145.401
62.33000 144.773
62.50000 142.201
62.67000 148.473
62.84000 138.815
63.01000 143.165
63.18000 150.147
63.35000 139.415
63.52000 147.968
63.69000 143.510
63.86000 164.567
64.03000 145.889
64.20000 160.922
64.37000 159.432
64.54000 175.776
64.71000 178.000
64.88000 176.100
65.05000 204.851
65.22000 277.802
65.39000 337.919
65.56000 419.631
65.73000 810.057
65.90000 1327.535
66.07000 422.320
66.24000 344.692
66.41000 516.528
66.58000 362.703
66.75000 307.263
66.92000 338.390
67.09000 370.937
67.26000 393.097
67.43000 424.118
67.60000 437.732
67.77000 485.324
67.94000 520.409
68.11000 570.179
68.28000 670.769
68.45000 741.678
68.62000 1082.712
68.79000 2134.927
68.96000 16519.486
69.13000 66847.992
69.30000 38754.215
69.47000 8742.400
69.64000 1253.624
69.81000 857.048
69.98000 723.332
70.00000 699.083

File: BTO_Mapping_Theta2Theta_24-09-2025_001_45_-20-000_-34-641.xy
20.00000 591.637
20.17000 557.376
20.34000 559.090
20.51000 561.040
20.68000 550.311
20.85000 563.117
21.02000 559.415
21.19000 545.365
21.36000 544.287
21.53000 554.071
21.70000 565.978
21.87000 703.385
22.04000 833.902
22.21000 704.885
22.38000 568.962
22.55000 539.768
22.72000 515.601
22.89000 530.207
23.06000 504.935
23.23000 508.649
23.40000 507.293
23.57000 490.524
23.74000 482.591
23.91000 482.438
24.08000 508.338
24.25000 487.777
24.42000 484.407
24.59000 487.621
24.76000 480.684
24.93000 484.383
25.10000 474.721
25.27000 480.474
25.44000 462.850
25.61000 465.692
25.78000 444.858
25.95000 458.648
26.12000 458.179
26.29000 456.147
26.46000 446.202
26.63000 451.837
26.80000 436.639
26.97000 453.354
27.14000 437.036
27.31000 431.413
27.48000 432.305
27.65000 426.036
27.82000 437.874
27.99000 427.161
28.16000 449.547
28.33000 419.239
28.50000 423.486
28.67000 428.805
28.84000 427.758
29.01000 408.942
29.18000 415.073
29.35000 427.018
29.52000 405.338
29.69000 414.627
29.86000 453.176
30.03000 453.742
30.20000 464.299
30.37000 439.105
30.54000 431.343
30.71000 448.960
30.88000 523.121
31.05000 815.795
31.22000 2258.134
31.39000 3843.180
31.56000 2056.170
31.73000 742.488
31.90000 479.944
32.07000 441.495
32.24000 393.740
32.41000 384.982
32.58000 366.213
32.75000 403.416
32.92000 553.255
33.09000 417.872
33.26000 373.369
33.43000 331.852
33.60000 344.403
33.77000 343.270
33.94000 343.235
34.11000 338.223
34.28000 329.200
34.45000 328.670
34.62000 314.853
34.79000 340.675
34.96000 313.856
35.13000 305.427
35.30000 322.042
35.47000 298.571
35.64000 313.849
35.81000 306.675
35.98000 310.749
36.15000 299.748
36.32000 323.269
36.49000 299.717
36.66000 311.197
36.83000 311.510
37.00000 321.213
37.17000 293.624
37.34000 298.650
37.51000 300.182
37.68000 305.000
37.85000 296.935
38.02000 302.048
38.19000 300.382
38.36000 381.804
38.53000 833.606
38.70000 1339.902
38.87000 816.962
39.04000 370.909
39.21000 300.539
39.38000 275.418
39.55000 276.780
39.72000 277.276
39.89000 254.637
40.06000 260.303
40.23000 257.805
40.40000 250.574
40.57000 247.745
40.74000 246.604
40.91000 259.417
41.08000 253.136
41.25000 239.688
41.42000 250.921
41.59000 242.007
41.76000 246.096
41.93000 232.497
42.10000 236.226
42.27000 233.976
42.44000 230.659
42.61000 240.695
42.78000 236.806
42.95000 243.702
43.12000 229.465
43.29000 223.503
43.46000 222.361
43.63000 223.339
43.80000 228.616
43.97000 220.846
44.14000 226.388
44.31000 225.705
44.48000 233.145
44.65000 256.913
44.82000 322.613
44.99000 453.609
45.16000 416.735
45.33000 321.251
45.50000 274.503
45.67000 246.547
45.84000 242.888
46.01000 211.222
46.18000 198.415
46.35000 204.101
46.52000 211.501
46.69000 182.731
46.86000 189.905
47.03000 196.859
47.20000 193.796
47.37000 194.132
47.54000 190.746
47.71000 188.648
47.88000 183.235
48.05000 188.781
48.22000 179.841
48.39000 186.333
48.56000 183.742
48.73000 183.246
48.90000 183.510
49.07000 185.553
49.24000 178.999
49.41000 187.390
49.58000 175.159
49.75000 165.352
49.92000 176.014
50.09000 193.483
50.26000 195.497
50.43000 215.176
50.60000 274.896
50.77000 284.985
50.94000 221.901
51.11000 190.525
51.28000 186.122
51.45000 170.105
51.62000 164.104
51.79000 158.717
51.96000 163.612
52.13000 169.764
52.30000 169.959
52.47000 165.596
52.64000 164.671
52.81000 161.438
52.98000 160.298
53.15000 156.582
53.32000 158.382
53.49000 154.022
53.66000 160.693
53.83000 167.077
54.00000 158.120
54.17000 154.393
54.34000 153.153
54.51000 163.568
54.68000 162.442
54.85000 170.835
55.02000 168.298
55.19000 167.976
55.36000 191.503
55.53000 244.841
55.70000 452.021
55.87000 796.138
56.04000 717.693
56.21000 400.824
56.38000 225.642
56.55000 179.281
56.72000 169.275
56.89000 158.609
57.06000 152.595
57.23000 149.421
57.40000 146.987
57.57000 146.157
57.74000 142.613
57.91000 138.778
58.08000 135.800
58.25000 152.835
58.42000 142.515
58.59000 140.271
58.76000 131.456
58.93000 137.325
59.10000 133.167
59.27000 128.946
59.44000 133.908
59.61000 129.804
59.78000 129.630
59.95000 132.237
60.12000 128.632
60.29000 133.729
60.46000 132.894
60.63000 128.160
60.80000 122.075
60.97000 124.613
61.14000 128.055
61.31000 138.594
61.48000 141.560
61.65000 317.679
61.82000 208.658
61.99000 138.095
62.16000 149.377
62.33000 137.137
62.50000 142.018
62.67000 140.817
62.84000 145.751
63.01000 159.733
63.18000 153.737
63.35000 146.787
63.52000 149.442
63.69000 143.776
63.86000 150.904
64.03000 157.819
64.20000 153.203
64.37000 158.433
64.54000 169.105
64.71000 172.738
64.88000 195.943
65.05000 207.736
65.22000 275.068
65.39000 349.884
65.56000 425.204
65.73000 856.078
65.90000 1426.472
66.07000 445.638
66.24000 350.597
66.41000 524.108
66.58000 386.793
66.75000 320.172
66.92000 337.923
67.09000 377.376
67.26000 396.492
67.43000 442.242
67.60000 447.426
67.77000 487.545
67.94000 536.211
68.11000 599.549
68.28000 645.740
68.45000 761.583
68.62000 1153.783
68.79000 2235.247
68.96000 17143.279
69.13000 71960.453
69.30000 42070.148
69.47000 9832.582
69.64000 1383.958
69.81000 910.524
69.98000 714.239
70.00000 707.064

File: BTO_Mapping_Theta2Theta_24-09-2025_001_46_-1-045_-9-945.xy
20.00000 556.795
20.17000 564.766
20.34000 569.558
20.51000 562.658
20.68000 564.572
20.85000 552.936
21.02000 542.360
21.19000 560.600
21.36000 548.652
21.53000 538.582
21.70000 555.096
21.87000 596.081
22.04000 671.702
22.21000 651.713
22.38000 586.142
22.55000 529.795
22.72000 521.739
22.89000 505.949
23.06000 517.893
23.23000 504.664
23.40000 508.743
23.57000 506.748
23.74000 484.407
23.91000 499.874
24.08000 477.386
24.25000 480.813
24.42000 482.719
24.59000 481.311
24.76000 464.762
24.93000 460.185
25.10000 481.401
25.27000 471.645
25.44000 467.878
25.61000 467.135
25.78000 470.978
25.95000 464.931
26.12000 461.073
26.29000 453.716
26.46000 444.334
26.63000 451.244
26.80000 461.899
26.97000 452.443
27.14000 444.926
27.31000 424.248
27.48000 435.785
27.65000 439.957
27.82000 435.361
27.99000 427.497
28.16000 424.785
28.33000 433.006
28.50000 429.583
28.67000 424.720
28.84000 420.048
29.01000 402.193
29.18000 415.912
29.35000 401.745
29.52000 421.772
29.69000 424.501
29.86000 418.403
30.03000 453.930
30.20000 445.465
30.37000 416.306
30.54000 426.354
30.71000 436.629
30.88000 483.338
31.05000 679.447
31.22000 1787.116
31.39000 3146.380
31.56000 1873.416
31.73000 725.929
31.90000 469.891
32.07000 416.017
32.24000 404.693
32.41000 388.536
32.58000 388.499
32.75000 369.933
32.92000 487.050
33.09000 400.819
33.26000 344.733
33.43000 333.462
33.60000 340.091
33.77000 334.207
33.94000 331.487
34.11000 336.515
34.28000 332.187
34.45000 319.046
34.62000 334.210
34.79000 323.902
34.96000 318.506
35.13000 311.124
35.30000 329.864
35.47000 316.140
35.64000 309.525
35.81000 308.162
35.98000 289.378
36.15000 303.901
36.32000 295.785
36.49000 291.839
36.66000 307.477
36.83000 302.441
37.00000 307.310
37.17000 298.581
37.34000 303.962
37.51000 301.496
37.68000 302.704
37.85000 307.052
38.02000 291.118
38.19000 305.896
38.36000 381.839
38.53000 809.957
38.70000 1548.592
38.87000 1040.715
39.04000 400.645
39.21000 316.511
39.38000 275.264
39.55000 279.949
39.72000 289.429
39.89000 271.590
40.06000 266.058
40.23000 255.817
40.40000 257.536
40.57000 254.223
40.74000 246.013
40.91000 256.832
41.08000 244.599
41.25000 240.259
41.42000 249.793
41.59000 245.716
41.76000 225.644
41.93000 249.733
42.10000 229.651
42.27000 238.577
42.44000 228.914
42.61000 232.877
42.78000 233.419
42.95000 230.595
43.12000 242.787
43.29000 237.245
43.46000 223.169
43.63000 222.214
43.80000 221.684
43.97000 206.598
44.14000 228.404
44.31000 225.860
44.48000 219.842
44.65000 222.124
44.82000 252.646
44.99000 319.319
45.16000 336.673
45.33000 292.270
45.50000 258.310
45.67000 234.615
45.84000 231.577
46.01000 211.770
46.18000 224.171
46.35000 205.985
46.52000 198.586
46.69000 197.433
46.86000 189.331
47.03000 207.873
47.20000 198.328
47.37000 173.950
47.54000 190.865
47.71000 188.771
47.88000 192.074
48.05000 188.023
48.22000 193.702
48.39000 183.724
48.56000 176.794
48.73000 180.749
48.90000 179.822
49.07000 181.067
49.24000 176.393
49.41000 169.095
49.58000 181.161
49.75000 166.756
49.92000 178.398
50.09000 178.176
50.26000 170.947
50.43000 188.911
50.60000 227.212
50.77000 241.773
50.94000 209.711
51.11000 187.518
51.28000 177.728
51.45000 176.050
51.62000 157.062
51.79000 166.327
51.96000 162.118
52.13000 159.310
52.30000 174.402
52.47000 168.269
52.64000 155.470
52.81000 164.447
52.98000 150.130
53.15000 170.510
53.32000 163.608
53.49000 159.030
53.66000 163.985
53.83000 155.264
54.00000 159.637
54.17000 160.062
54.34000 167.495
54.51000 161.754
54.68000 152.623
54.85000 171.789
55.02000 160.948
55.19000 168.354
55.36000 176.010
55.53000 224.164
55.70000 424.548
55.87000 808.885
56.04000 777.602
56.21000 469.132
56.38000 238.284
56.55000 183.848
56.72000 169.614
56.89000 162.787
57.06000 154.936
57.23000 153.970
57.40000 148.113
57.57000 145.101
57.74000 139.876
57.91000 139.091
58.08000 133.273
58.25000 141.031
58.42000 143.350
58.59000 147.025
58.76000 130.278
58.93000 134.038
59.10000 132.078
59.27000 133.429
59.44000 138.566
59.61000 115.063
59.78000 143.085
59.95000 129.119
60.12000 130.334
60.29000 137.637
60.46000 125.135
60.63000 135.593
60.80000 140.871
60.97000 133.322
61.14000 139.542
61.31000 136.036
61.48000 147.876
61.65000 270.248
61.82000 183.521
61.99000 136.357
62.16000 137.407
62.33000 145.716
62.50000 137.889
62.67000 151.917
62.84000 142.793
63.01000 136.291
63.18000 145.822
63.35000 156.404
63.52000 139.927
63.69000 137.092
63.86000 158.787
64.03000 150.408
64.20000 152.068
64.37000 162.916
64.54000 173.282
64.71000 167.691
64.88000 183.553
65.05000 188.762
65.22000 239.897
65.39000 302.408
65.56000 371.307
65.73000 708.316
65.90000 1130.964
66.07000 386.441
66.24000 311.446
66.41000 438.136
66.58000 348.327
66.75000 303.120
66.92000 321.756
67.09000 353.418
67.26000 359.309
67.43000 403.546
67.60000 407.760
67.77000 471.378
67.94000 510.797
68.11000 512.042
68.28000 585.024
68.45000 688.393
68.62000 982.855
68.79000 1868.504
68.96000 12846.894
69.13000 55601.703
69.30000 32408.686
69.47000 7344.772
69.64000 1162.704
69.81000 797.495
69.98000 672.232
70.00000 663.860

File: BTO_Mapping_Theta2Theta_24-09-2025_001_47_-2-091_-19-890.xy
20.00000 552.682
20.17000 547.233
20.34000 557.051
20.51000 544.147
20.68000 541.757
20.85000 546.353
21.02000 540.737
21.19000 543.374
21.36000 556.422
21.53000 543.130
21.70000 530.280
21.87000 592.167
22.04000 676.435
22.21000 661.489
22.38000 569.820
22.55000 549.322
22.72000 547.382
22.89000 530.224
23.06000 523.399
23.23000 510.669
23.40000 503.484
23.57000 473.356
23.74000 512.852
23.91000 473.013
24.08000 485.806
24.25000 481.320
24.42000 492.517
24.59000 476.553
24.76000 480.444
24.93000 466.314
25.10000 461.514
25.27000 467.956
25.44000 455.815
25.61000 471.609
25.78000 469.277
25.95000 452.070
26.12000 449.968
26.29000 446.732
26.46000 426.323
26.63000 462.743
26.80000 442.740
26.97000 447.010
27.14000 441.927
27.31000 434.117
27.48000 440.306
27.65000 441.867
27.82000 432.261
27.99000 431.543
28.16000 432.895
28.33000 415.320
28.50000 411.884
28.67000 422.150
28.84000 427.741
29.01000 408.872
29.18000 404.924
29.35000 412.304
29.52000 409.493
29.69000 432.018
29.86000 429.382
30.03000 441.517
30.20000 429.613
30.37000 419.998
30.54000 429.355
30.71000 447.644
30.88000 475.295
31.05000 663.808
31.22000 1688.410
31.39000 2939.605
31.56000 1775.032
31.73000 709.933
31.90000 457.965
32.07000 425.621
32.24000 397.276
32.41000 382.557
32.58000 383.541
32.75000 377.709
32.92000 472.813
33.09000 398.015
33.26000 354.451
33.43000 347.178
33.60000 342.594
33.77000 324.523
33.94000 337.823
34.11000 334.255
34.28000 337.481
34.45000 330.837
34.62000 313.036
34.79000 328.057
34.96000 313.359
35.13000 310.459
35.30000 313.033
35.47000 312.646
35.64000 306.343
35.81000 308.577
35.98000 304.284
36.15000 300.915
36.32000 298.028
36.49000 310.350
36.66000 314.913
36.83000 307.433
37.00000 300.782
37.17000 309.535
37.34000 301.667
37.51000 296.498
37.68000 292.046
37.85000 290.521
38.02000 308.569
38.19000 326.704
38.36000 379.211
38.53000 810.901
38.70000 1587.372
38.87000 1074.100
39.04000 411.521
39.21000 309.671
39.38000 272.138
39.55000 271.008
39.72000 276.558
39.89000 271.082
40.06000 265.817
40.23000 244.399
40.40000 258.194
40.57000 237.957
40.74000 241.540
40.91000 241.988
41.08000 245.309
41.25000 237.575
41.42000 245.590
41.59000 250.887
41.76000 233.358
41.93000 249.454
42.10000 225.476
42.27000 235.964
42.44000 235.144
42.61000 238.713
42.78000 229.601
42.95000 232.474
43.12000 227.252
43.29000 229.748
43.46000 222.297
43.63000 227.723
43.80000 213.005
43.97000 213.682
44.14000 215.376
44.31000 220.584
44.48000 212.626
44.65000 235.477
44.82000 258.335
44.99000 310.627
45.16000 312.287
45.33000 296.656
45.50000 262.533
45.67000 242.195
45.84000 233.829
46.01000 224.220
46.18000 205.350
46.35000 194.439
46.52000 203.013
46.69000 205.112
46.86000 201.899
47.03000 187.724
47.20000 189.563
47.37000 185.476
47.54000 186.429
47.71000 189.069
47.88000 181.768
48.05000 178.026
48.22000 176.598
48.39000 185.466
48.56000 192.768
48.73000 175.394
48.90000 187.854
49.07000 167.707
49.24000 181.480
49.41000 174.024
49.58000 172.818
49.75000 175.993
49.92000 173.801
50.09000 176.288
50.26000 186.107
50.43000 189.313
50.60000 223.752
50.77000 224.924
50.94000 218.525
51.11000 190.046
51.28000 174.813
51.45000 171.033
51.62000 173.084
51.79000 161.023
51.96000 162.432
52.13000 159.178
52.30000 153.717
52.47000 160.962
52.64000 157.267
52.81000 160.218
52.98000 167.531
53.15000 160.192
53.32000 174.242
53.49000 156.400
53.66000 169.366
53.83000 163.888
54.00000 152.623
54.17000 153.055
54.34000 156.159
54.51000 174.624
54.68000 164.367
54.85000 167.615
55.02000 148.917
55.19000 162.510
55.36000 170.211
55.53000 236.093
55.70000 416.728
55.87000 809.239
56.04000 814.930
56.21000 464.958
56.38000 236.563
56.55000 180.197
56.72000 159.294
56.89000 156.363
57.06000 150.693
57.23000 152.859
57.40000 150.762
57.57000 145.292
57.74000 147.757
57.91000 140.824
58.08000 146.731
58.25000 137.182
58.42000 129.153
58.59000 133.119
58.76000 135.017
58.93000 132.644
59.10000 135.355
59.27000 128.570
59.44000 126.912
59.61000 134.204
59.78000 136.563
59.95000 132.256
60.12000 142.189
60.29000 138.805
60.46000 138.290
60.63000 127.212
60.80000 131.292
60.97000 128.104
61.14000 144.311
61.31000 143.295
61.48000 143.780
61.65000 271.132
61.82000 191.165
61.99000 148.890
62.16000 136.202
62.33000 147.470
62.50000 140.673
62.67000 138.478
62.84000 149.011
63.01000 142.692
63.18000 142.529
63.35000 142.200
63.52000 145.999
63.69000 144.445
63.86000 144.829
64.03000 140.083
64.20000 159.828
64.37000 158.758
64.54000 160.207
64.71000 177.764
64.88000 177.709
65.05000 199.010
65.22000 226.051
65.39000 295.301
65.56000 381.769
65.73000 692.784
65.90000 1126.260
66.07000 391.931
66.24000 317.949
66.41000 452.165
66.58000 324.612
66.75000 322.115
66.92000 330.552
67.09000 352.659
67.26000 368.030
67.43000 392.579
67.60000 428.842
67.77000 462.965
67.94000 497.565
68.11000 534.407
68.28000 590.257
68.45000 694.786
68.62000 1000.199
68.79000 1862.665
68.96000 12887.571
69.13000 55442.238
69.30000 31999.723
69.47000 7363.646
69.64000 1204.637
69.81000 774.405
69.98000 663.847
70.00000 657.373