Folder: Master-Thesis/XRD/XRD/24-09-2025 Dep 3/XY Data (part 6)

File: BTO_Mapping_Theta2Theta_24-09-2025_001_48_-3-136_-29-836.xy
20.00000 551.875
20.17000 552.681
20.34000 560.717
20.51000 566.284
20.68000 561.740
20.85000 539.472
21.02000 544.699
21.19000 542.192
21.36000 537.346
21.53000 568.827
21.70000 570.319
21.87000 590.495
22.04000 691.767
22.21000 634.231
22.38000 592.099
22.55000 531.709
22.72000 518.608
22.89000 511.290
23.06000 507.993
23.23000 508.219
23.40000 505.448
23.57000 507.066
23.74000 508.848
23.91000 479.473
24.08000 483.728
24.25000 503.298
24.42000 492.550
24.59000 489.832
24.76000 507.211
24.93000 506.557
25.10000 481.207
25.27000 463.312
25.44000 460.943
25.61000 455.458
25.78000 469.830
25.95000 461.494
26.12000 456.733
26.29000 457.329
26.46000 426.630
26.63000 448.151
26.80000 438.920
26.97000 442.821
27.14000 437.807
27.31000 436.779
27.48000 433.259
27.65000 443.702
27.82000 429.611
27.99000 431.054
28.16000 429.508
28.33000 420.745
28.50000 430.932
28.67000 410.655
28.84000 428.718
29.01000 414.398
29.18000 424.733
29.35000 408.013
29.52000 402.417
29.69000 399.196
29.86000 429.831
30.03000 428.564
30.20000 426.889
30.37000 413.921
30.54000 417.625
30.71000 433.825
30.88000 455.734
31.05000 644.342
31.22000 1562.882
31.39000 2572.431
31.56000 1586.751
31.73000 672.127
31.90000 452.950
32.07000 405.076
32.24000 394.424
32.41000 393.935
32.58000 365.708
32.75000 369.691
32.92000 472.697
33.09000 384.579
33.26000 355.121
33.43000 349.466
33.60000 340.713
33.77000 332.960
33.94000 348.286
34.11000 334.683
34.28000 337.356
34.45000 326.428
34.62000 331.246
34.79000 335.829
34.96000 306.542
35.13000 314.973
35.30000 312.956
35.47000 315.675
35.64000 307.967
35.81000 304.878
35.98000 299.758
36.15000 301.527
36.32000 297.465
36.49000 288.154
36.66000 290.979
36.83000 289.509
37.00000 321.259
37.17000 310.275
37.34000 296.574
37.51000 291.573
37.68000 292.247
37.85000 297.773
38.02000 314.344
38.19000 321.832
38.36000 367.984
38.53000 810.265
38.70000 1671.879
38.87000 1124.968
39.04000 430.414
39.21000 296.928
39.38000 299.146
39.55000 272.479
39.72000 260.204
39.89000 265.452
40.06000 254.579
40.23000 266.340
40.40000 246.546
40.57000 250.092
40.74000 247.847
40.91000 248.551
41.08000 249.383
41.25000 260.401
41.42000 252.808
41.59000 235.080
41.76000 244.481
41.93000 225.905
42.10000 247.537
42.27000 235.008
42.44000 230.573
42.61000 231.747
42.78000 241.987
42.95000 228.958
43.12000 211.583
43.29000 230.493
43.46000 228.261
43.63000 239.405
43.80000 217.749
43.97000 225.159
44.14000 218.843
44.31000 215.007
44.48000 213.471
44.65000 234.752
44.82000 241.243
44.99000 304.951
45.16000 305.072
45.33000 284.585
45.50000 261.383
45.67000 248.363
45.84000 226.705
46.01000 212.720
46.18000 199.941
46.35000 212.897
46.52000 206.231
46.69000 189.428
46.86000 197.411
47.03000 203.714
47.20000 188.311
47.37000 183.736
47.54000 186.251
47.71000 194.106
47.88000 170.830
48.05000 192.087
48.22000 169.444
48.39000 184.506
48.56000 191.826
48.73000 187.552
48.90000 173.930
49.07000 185.365
49.24000 180.538
49.41000 183.022
49.58000 172.458
49.75000 175.243
49.92000 168.897
50.09000 179.722
50.26000 183.600
50.43000 204.726
50.60000 221.949
50.77000 213.179
50.94000 190.079
51.11000 183.364
51.28000 172.255
51.45000 184.000
51.62000 161.644
51.79000 167.730
51.96000 164.090
52.13000 159.052
52.30000 160.645
52.47000 157.545
52.64000 150.689
52.81000 159.844
52.98000 157.845
53.15000 149.861
53.32000 175.459
53.49000 161.089
53.66000 163.791
53.83000 161.511
54.00000 155.444
54.17000 157.866
54.34000 165.083
54.51000 162.355
54.68000 168.570
54.85000 149.884
55.02000 157.351
55.19000 164.376
55.36000 185.528
55.53000 238.405
55.70000 437.355
55.87000 833.836
56.04000 861.202
56.21000 488.258
56.38000 285.303
56.55000 198.418
56.72000 159.384
56.89000 157.005
57.06000 147.431
57.23000 153.166
57.40000 147.250
57.57000 140.312
57.74000 151.641
57.91000 143.666
58.08000 149.469
58.25000 139.520
58.42000 143.328
58.59000 137.851
58.76000 139.363
58.93000 138.437
59.10000 138.033
59.27000 137.037
59.44000 129.124
59.61000 135.366
59.78000 130.436
59.95000 124.926
60.12000 132.598
60.29000 134.563
60.46000 133.211
60.63000 132.476
60.80000 126.428
60.97000 131.584
61.14000 136.536
61.31000 133.573
61.48000 144.926
61.65000 271.010
61.82000 183.014
61.99000 131.987
62.16000 136.942
62.33000 128.787
62.50000 143.160
62.67000 135.227
62.84000 137.186
63.01000 140.257
63.18000 142.366
63.35000 144.688
63.52000 145.015
63.69000 137.093
63.86000 155.351
64.03000 153.267
64.20000 163.341
64.37000 167.852
64.54000 155.391
64.71000 170.033
64.88000 182.869
65.05000 184.463
65.22000 241.496
65.39000 285.337
65.56000 332.784
65.73000 681.459
65.90000 1114.716
66.07000 386.726
66.24000 312.218
66.41000 441.512
66.58000 318.527
66.75000 305.908
66.92000 321.110
67.09000 332.091
67.26000 369.271
67.43000 395.515
67.60000 430.193
67.77000 463.872
67.94000 467.894
68.11000 533.741
68.28000 610.808
68.45000 689.171
68.62000 989.007
68.79000 1873.618
68.96000 12994.500
69.13000 54637.930
69.30000 31446.813
69.47000 7090.050
69.64000 1184.082
69.81000 779.147
69.98000 670.418
70.00000 663.378

File: BTO_Mapping_Theta2Theta_24-09-2025_001_50_3-090_-9-511.xy
20.00000 555.746
20.17000 562.596
20.34000 566.722
20.51000 549.611
20.68000 556.164
20.85000 544.143
21.02000 551.260
21.19000 566.056
21.36000 553.237
21.53000 543.070
21.70000 549.731
21.87000 572.244
22.04000 665.395
22.21000 625.078
22.38000 580.805
22.55000 558.097
22.72000 514.998
22.89000 505.008
23.06000 520.253
23.23000 502.387
23.40000 512.150
23.57000 487.324
23.74000 501.502
23.91000 484.141
24.08000 499.233
24.25000 499.814
24.42000 484.623
24.59000 483.563
24.76000 494.769
24.93000 481.447
25.10000 464.326
25.27000 457.566
25.44000 478.001
25.61000 466.342
25.78000 457.036
25.95000 447.691
26.12000 452.534
26.29000 465.681
26.46000 441.592
26.63000 445.252
26.80000 448.530
26.97000 442.788
27.14000 429.118
27.31000 439.683
27.48000 439.408
27.65000 431.680
27.82000 435.052
27.99000 424.738
28.16000 423.637
28.33000 410.463
28.50000 431.387
28.67000 411.246
28.84000 416.144
29.01000 414.613
29.18000 411.610
29.35000 405.771
29.52000 408.405
29.69000 407.406
29.86000 418.532
30.03000 439.043
30.20000 430.904
30.37000 417.623
30.54000 416.773
30.71000 431.840
30.88000 471.432
31.05000 625.022
31.22000 1503.040
31.39000 2630.678
31.56000 1635.283
31.73000 692.362
31.90000 460.181
32.07000 417.825
32.24000 399.865
32.41000 376.357
32.58000 367.277
32.75000 378.310
32.92000 457.315
33.09000 411.435
33.26000 352.498
33.43000 339.050
33.60000 338.895
33.77000 343.024
33.94000 337.267
34.11000 332.112
34.28000 336.299
34.45000 313.861
34.62000 322.614
34.79000 320.749
34.96000 318.583
35.13000 305.720
35.30000 321.186
35.47000 319.327
35.64000 313.805
35.81000 291.164
35.98000 315.204
36.15000 288.540
36.32000 286.338
36.49000 288.951
36.66000 292.155
36.83000 290.553
37.00000 305.894
37.17000 318.051
37.34000 288.398
37.51000 295.541
37.68000 280.547
37.85000 302.698
38.02000 294.072
38.19000 301.278
38.36000 375.318
38.53000 745.875
38.70000 1571.274
38.87000 1123.835
39.04000 408.268
39.21000 310.702
39.38000 281.987
39.55000 272.560
39.72000 263.586
39.89000 268.268
40.06000 270.676
40.23000 266.733
40.40000 254.213
40.57000 239.410
40.74000 246.639
40.91000 246.600
41.08000 244.672
41.25000 240.915
41.42000 248.188
41.59000 236.924
41.76000 244.906
41.93000 249.646
42.10000 238.003
42.27000 227.524
42.44000 239.641
42.61000 238.608
42.78000 236.062
42.95000 219.933
43.12000 226.254
43.29000 234.578
43.46000 217.259
43.63000 215.986
43.80000 218.608
43.97000 215.582
44.14000 216.654
44.31000 207.941
44.48000 221.172
44.65000 215.176
44.82000 248.959
44.99000 290.353
45.16000 319.894
45.33000 275.726
45.50000 248.444
45.67000 239.744
45.84000 236.120
46.01000 209.996
46.18000 216.425
46.35000 196.268
46.52000 205.694
46.69000 197.331
46.86000 199.533
47.03000 201.373
47.20000 195.565
47.37000 189.525
47.54000 190.999
47.71000 188.207
47.88000 191.242
48.05000 179.525
48.22000 193.673
48.39000 167.741
48.56000 182.846
48.73000 172.643
48.90000 175.848
49.07000 179.567
49.24000 181.752
49.41000 184.890
49.58000 174.668
49.75000 178.486
49.92000 186.130
50.09000 179.585
50.26000 181.261
50.43000 191.088
50.60000 212.086
50.77000 224.767
50.94000 211.910
51.11000 177.190
51.28000 171.046
51.45000 163.629
51.62000 176.404
51.79000 159.741
51.96000 173.817
52.13000 158.048
52.30000 161.509
52.47000 154.573
52.64000 156.797
52.81000 164.432
52.98000 161.955
53.15000 155.778
53.32000 163.257
53.49000 158.546
53.66000 166.431
53.83000 145.505
54.00000 161.578
54.17000 159.248
54.34000 157.919
54.51000 158.706
54.68000 151.477
54.85000 165.372
55.02000 152.926
55.19000 173.494
55.36000 177.084
55.53000 224.781
55.70000 400.534
55.87000 781.444
56.04000 836.074
56.21000 509.769
56.38000 266.794
56.55000 187.588
56.72000 176.699
56.89000 154.694
57.06000 155.479
57.23000 140.238
57.40000 142.964
57.57000 146.719
57.74000 133.243
57.91000 140.883
58.08000 139.513
58.25000 144.294
58.42000 128.849
58.59000 147.624
58.76000 137.626
58.93000 126.613
59.10000 137.161
59.27000 143.438
59.44000 126.876
59.61000 140.020
59.78000 134.278
59.95000 127.247
60.12000 122.201
60.29000 130.555
60.46000 139.397
60.63000 122.915
60.80000 132.259
60.97000 130.754
61.14000 142.259
61.31000 135.541
61.48000 140.874
61.65000 244.300
61.82000 195.636
61.99000 140.959
62.16000 142.399
62.33000 138.532
62.50000 152.500
62.67000 146.996
62.84000 143.744
63.01000 140.844
63.18000 131.639
63.35000 147.195
63.52000 154.884
63.69000 144.591
63.86000 152.093
64.03000 147.020
64.20000 157.196
64.37000 165.563
64.54000 167.281
64.71000 169.411
64.88000 171.157
65.05000 190.175
65.22000 238.347
65.39000 285.296
65.56000 358.942
65.73000 646.949
65.90000 1062.569
66.07000 369.445
66.24000 329.815
66.41000 445.999
66.58000 328.060
66.75000 293.345
66.92000 321.884
67.09000 341.159
67.26000 366.296
67.43000 391.933
67.60000 414.224
67.77000 421.645
67.94000 479.779
68.11000 528.235
68.28000 602.878
68.45000 670.474
68.62000 958.956
68.79000 1831.283
68.96000 12128.021
69.13000 53150.223
69.30000 30859.346
69.47000 7138.201
69.64000 1176.688
69.81000 810.133
69.98000 643.775
70.00000 640.884

File: BTO_Mapping_Theta2Theta_24-09-2025_001_51_6-180_-19-021.xy
20.00000 561.752
20.17000 539.720
20.34000 571.613
20.51000 554.712
20.68000 539.392
20.85000 546.932
21.02000 545.830
21.19000 558.738
21.36000 533.998
21.53000 552.391
21.70000 540.450
21.87000 596.942
22.04000 603.232
22.21000 578.837
22.38000 581.074
22.55000 561.531
22.72000 501.293
22.89000 514.758
23.06000 509.955
23.23000 488.944
23.40000 509.160
23.57000 490.865
23.74000 506.304
23.91000 490.317
24.08000 495.154
24.25000 495.305
24.42000 477.030
24.59000 502.441
24.76000 476.090
24.93000 480.323
25.10000 474.318
25.27000 457.233
25.44000 471.315
25.61000 465.116
25.78000 460.542
25.95000 465.186
26.12000 464.628
26.29000 458.971
26.46000 451.491
26.63000 429.062
26.80000 441.541
26.97000 436.720
27.14000 436.675
27.31000 455.162
27.48000 428.592
27.65000 438.154
27.82000 433.834
27.99000 440.303
28.16000 430.839
28.33000 421.884
28.50000 420.692
28.67000 397.087
28.84000 396.966
29.01000 413.120
29.18000 415.534
29.35000 425.169
29.52000 423.252
29.69000 401.767
29.86000 431.658
30.03000 450.602
30.20000 421.891
30.37000 412.555
30.54000 412.245
30.71000 418.975
30.88000 436.446
31.05000 565.370
31.22000 1199.076
31.39000 2043.688
31.56000 1328.969
31.73000 626.087
31.90000 449.308
32.07000 406.864
32.24000 405.303
32.41000 387.724
32.58000 372.878
32.75000 365.274
32.92000 443.721
33.09000 366.151
33.26000 345.661
33.43000 343.650
33.60000 334.792
33.77000 324.644
33.94000 328.535
34.11000 336.419
34.28000 318.008
34.45000 329.967
34.62000 321.353
34.79000 316.388
34.96000 333.674
35.13000 312.733
35.30000 304.520
35.47000 303.617
35.64000 306.153
35.81000 303.240
35.98000 304.826
36.15000 305.418
36.32000 323.861
36.49000 305.590
36.66000 306.362
36.83000 293.461
37.00000 299.474
37.17000 310.899
37.34000 295.291
37.51000 302.118
37.68000 296.628
37.85000 305.183
38.02000 292.069
38.19000 301.665
38.36000 353.709
38.53000 727.401
38.70000 1559.812
38.87000 1134.706
39.04000 417.505
39.21000 309.857
39.38000 281.668
39.55000 278.824
39.72000 264.761
39.89000 267.227
40.06000 245.469
40.23000 261.349
40.40000 247.721
40.57000 254.550
40.74000 245.956
40.91000 230.555
41.08000 251.026
41.25000 235.200
41.42000 233.072
41.59000 240.813
41.76000 235.875
41.93000 218.294
42.10000 244.561
42.27000 220.203
42.44000 223.232
42.61000 233.791
42.78000 231.552
42.95000 223.152
43.12000 200.932
43.29000 222.845
43.46000 214.557
43.63000 221.276
43.80000 226.222
43.97000 214.663
44.14000 209.501
44.31000 211.152
44.48000 222.535
44.65000 226.091
44.82000 230.904
44.99000 269.597
45.16000 277.130
45.33000 262.757
45.50000 241.605
45.67000 242.733
45.84000 218.335
46.01000 211.918
46.18000 209.905
46.35000 209.712
46.52000 199.285
46.69000 193.915
46.86000 199.220
47.03000 202.994
47.20000 189.761
47.37000 192.312
47.54000 199.484
47.71000 191.320
47.88000 187.241
48.05000 195.308
48.22000 177.146
48.39000 169.540
48.56000 191.328
48.73000 182.508
48.90000 178.632
49.07000 169.207
49.24000 180.842
49.41000 171.628
49.58000 169.418
49.75000 175.742
49.92000 185.438
50.09000 177.046
50.26000 178.333
50.43000 177.087
50.60000 204.331
50.77000 217.289
50.94000 200.988
51.11000 171.284
51.28000 187.226
51.45000 160.753
51.62000 162.640
51.79000 170.074
51.96000 159.021
52.13000 153.790
52.30000 152.845
52.47000 161.854
52.64000 162.882
52.81000 148.058
52.98000 157.842
53.15000 149.762
53.32000 173.609
53.49000 162.851
53.66000 161.535
53.83000 166.510
54.00000 163.314
54.17000 163.189
54.34000 154.598
54.51000 153.744
54.68000 158.692
54.85000 165.630
55.02000 162.438
55.19000 164.256
55.36000 181.204
55.53000 228.466
55.70000 419.657
55.87000 771.807
56.04000 880.033
56.21000 557.503
56.38000 279.111
56.55000 199.857
56.72000 164.124
56.89000 157.804
57.06000 147.008
57.23000 146.764
57.40000 145.818
57.57000 145.014
57.74000 145.928
57.91000 127.178
58.08000 149.450
58.25000 144.586
58.42000 140.403
58.59000 143.080
58.76000 135.270
58.93000 134.204
59.10000 123.100
59.27000 125.543
59.44000 131.421
59.61000 122.833
59.78000 143.258
59.95000 130.560
60.12000 131.004
60.29000 138.517
60.46000 133.137
60.63000 124.575
60.80000 132.680
60.97000 135.247
61.14000 129.622
61.31000 135.287
61.48000 138.151
61.65000 250.271
61.82000 179.842
61.99000 131.968
62.16000 133.605
62.33000 139.608
62.50000 147.001
62.67000 141.913
62.84000 141.129
63.01000 140.946
63.18000 146.257
63.35000 146.953
63.52000 147.946
63.69000 143.068
63.86000 144.857
64.03000 150.858
64.20000 161.936
64.37000 159.047
64.54000 173.600
64.71000 169.944
64.88000 171.775
65.05000 186.044
65.22000 219.339
65.39000 271.908
65.56000 321.572
65.73000 599.836
65.90000 1030.937
66.07000 388.765
66.24000 296.846
66.41000 424.720
66.58000 334.099
66.75000 290.618
66.92000 319.663
67.09000 341.690
67.26000 348.066
67.43000 392.336
67.60000 420.888
67.77000 444.123
67.94000 481.949
68.11000 524.029
68.28000 569.152
68.45000 666.669
68.62000 959.162
68.79000 1747.456
68.96000 11499.670
69.13000 50981.996
69.30000 29620.416
69.47000 6835.791
69.64000 1145.989
69.81000 761.006
69.98000 651.562
70.00000 647.043

File: BTO_Mapping_Theta2Theta_24-09-2025_001_52_9-271_-28-532.xy
20.00000 584.836
20.17000 566.735
20.34000 551.573
20.51000 555.614
20.68000 543.126
20.85000 556.057
21.02000 534.042
21.19000 542.124
21.36000 551.529
21.53000 518.431
21.70000 551.326
21.87000 578.957
22.04000 591.511
22.21000 608.984
22.38000 562.945
22.55000 537.458
22.72000 535.999
22.89000 521.668
23.06000 489.226
23.23000 525.148
23.40000 490.487
23.57000 511.298
23.74000 485.351
23.91000 483.258
24.08000 488.821
24.25000 485.353
24.42000 478.954
24.59000 483.003
24.76000 462.169
24.93000 466.091
25.10000 468.636
25.27000 453.273
25.44000 466.028
25.61000 460.963
25.78000 461.743
25.95000 454.757
26.12000 453.214
26.29000 447.367
26.46000 447.904
26.63000 451.099
26.80000 451.587
26.97000 434.346
27.14000 451.704
27.31000 435.456
27.48000 425.198
27.65000 429.884
27.82000 433.943
27.99000 429.776
28.16000 425.828
28.33000 418.669
28.50000 430.117
28.67000 409.651
28.84000 415.971
29.01000 404.714
29.18000 422.940
29.35000 400.973
29.52000 395.927
29.69000 411.651
29.86000 419.615
30.03000 436.280
30.20000 402.163
30.37000 397.715
30.54000 405.422
30.71000 420.371
30.88000 444.822
31.05000 532.951
31.22000 1032.973
31.39000 1669.997
31.56000 1158.486
31.73000 589.562
31.90000 428.860
32.07000 408.119
32.24000 398.237
32.41000 382.371
32.58000 370.611
32.75000 375.906
32.92000 437.256
33.09000 366.893
33.26000 339.087
33.43000 342.639
33.60000 331.167
33.77000 331.848
33.94000 321.750
34.11000 328.570
34.28000 319.643
34.45000 306.787
34.62000 324.113
34.79000 330.331
34.96000 323.404
35.13000 308.551
35.30000 326.561
35.47000 300.992
35.64000 318.936
35.81000 299.382
35.98000 311.043
36.15000 292.508
36.32000 290.067
36.49000 307.217
36.66000 296.878
36.83000 307.918
37.00000 326.671
37.17000 299.501
37.34000 293.132
37.51000 291.816
37.68000 299.190
37.85000 282.234
38.02000 294.238
38.19000 319.848
38.36000 356.265
38.53000 708.949
38.70000 1542.258
38.87000 1196.667
39.04000 425.341
39.21000 308.514
39.38000 286.265
39.55000 271.620
39.72000 289.362
39.89000 263.704
40.06000 257.075
40.23000 269.888
40.40000 259.918
40.57000 256.715
40.74000 262.140
40.91000 251.459
41.08000 240.176
41.25000 259.193
41.42000 258.379
41.59000 223.940
41.76000 248.843
41.93000 235.047
42.10000 235.463
42.27000 237.240
42.44000 235.351
42.61000 230.997
42.78000 223.663
42.95000 224.420
43.12000 211.542
43.29000 208.867
43.46000 217.979
43.63000 222.412
43.80000 225.519
43.97000 212.719
44.14000 226.297
44.31000 217.248
44.48000 217.575
44.65000 205.624
44.82000 220.902
44.99000 263.413
45.16000 265.596
45.33000 249.263
45.50000 232.533
45.67000 240.089
45.84000 221.943
46.01000 212.477
46.18000 210.522
46.35000 211.664
46.52000 213.066
46.69000 200.575
46.86000 192.177
47.03000 200.033
47.20000 188.450
47.37000 195.922
47.54000 183.565
47.71000 187.475
47.88000 184.829
48.05000 179.664
48.22000 180.710
48.39000 192.664
48.56000 175.367
48.73000 175.446
48.90000 175.237
49.07000 175.237
49.24000 175.793
49.41000 188.712
49.58000 180.964
49.75000 180.028
49.92000 178.286
50.09000 177.494
50.26000 173.788
50.43000 173.375
50.60000 189.120
50.77000 193.802
50.94000 195.949
51.11000 182.186
51.28000 187.243
51.45000 159.700
51.62000 163.846
51.79000 164.405
51.96000 156.864
52.13000 154.226
52.30000 163.921
52.47000 156.382
52.64000 166.574
52.81000 160.581
52.98000 143.549
53.15000 159.267
53.32000 149.526
53.49000 169.023
53.66000 162.441
53.83000 162.473
54.00000 163.648
54.17000 158.915
54.34000 164.602
54.51000 159.899
54.68000 159.940
54.85000 161.756
55.02000 164.327
55.19000 162.921
55.36000 181.111
55.53000 215.655
55.70000 381.007
55.87000 766.137
56.04000 894.292
56.21000 568.571
56.38000 291.605
56.55000 185.680
56.72000 173.499
56.89000 157.655
57.06000 146.698
57.23000 150.825
57.40000 140.049
57.57000 138.833
57.74000 135.519
57.91000 147.942
58.08000 139.319
58.25000 145.098
58.42000 141.662
58.59000 139.552
58.76000 129.203
58.93000 139.527
59.10000 126.381
59.27000 140.749
59.44000 133.564
59.61000 130.846
59.78000 145.662
59.95000 131.047
60.12000 141.012
60.29000 132.447
60.46000 135.734
60.63000 128.020
60.80000 130.834
60.97000 137.204
61.14000 152.092
61.31000 126.583
61.48000 126.758
61.65000 254.829
61.82000 190.827
61.99000 140.435
62.16000 136.559
62.33000 142.136
62.50000 135.127
62.67000 141.890
62.84000 128.896
63.01000 134.297
63.18000 153.515
63.35000 138.334
63.52000 144.520
63.69000 151.118
63.86000 148.394
64.03000 156.279
64.20000 152.640
64.37000 149.021
64.54000 166.217
64.71000 163.801
64.88000 185.973
65.05000 187.029
65.22000 197.206
65.39000 245.922
65.56000 293.059
65.73000 593.435
65.90000 1017.372
66.07000 367.510
66.24000 299.395
66.41000 424.696
66.58000 327.763
66.75000 310.480
66.92000 315.202
67.09000 329.665
67.26000 349.607
67.43000 388.412
67.60000 415.494
67.77000 427.504
67.94000 497.800
68.11000 540.131
68.28000 573.009
68.45000 667.092
68.62000 927.161
68.79000 1710.473
68.96000 11289.922
69.13000 49933.840
69.30000 28921.973
69.47000 6530.860
69.64000 1092.139
69.81000 753.230
69.98000 649.804
70.00000 644.385

File: BTO_Mapping_Theta2Theta_24-09-2025_001_53_12-361_-38-042.xy
20.00000 554.856
20.17000 558.688
20.34000 562.254
20.51000 536.625
20.68000 559.803
20.85000 545.684
21.02000 557.130
21.19000 544.625
21.36000 557.623
21.53000 546.589
21.70000 538.970
21.87000 557.141
22.04000 626.020
22.21000 623.122
22.38000 556.644
22.55000 535.101
22.72000 535.640
22.89000 518.720
23.06000 505.376
23.23000 528.188
23.40000 510.531
23.57000 501.050
23.74000 513.573
23.91000 493.669
24.08000 495.303
24.25000 494.513
24.42000 508.786
24.59000 490.373
24.76000 460.870
24.93000 475.804
25.10000 488.480
25.27000 460.623
25.44000 472.096
25.61000 463.098
25.78000 450.159
25.95000 459.971
26.12000 447.475
26.29000 445.349
26.46000 470.794
26.63000 464.587
26.80000 438.091
26.97000 428.233
27.14000 438.290
27.31000 438.790
27.48000 434.571
27.65000 437.544
27.82000 425.454
27.99000 439.997
28.16000 412.077
28.33000 437.834
28.50000 405.777
28.67000 412.343
28.84000 408.488
29.01000 417.900
29.18000 404.824
29.35000 417.870
29.52000 400.734
29.69000 401.026
29.86000 412.749
30.03000 414.216
30.20000 425.906
30.37000 422.358
30.54000 412.388
30.71000 414.643
30.88000 438.206
31.05000 528.224
31.22000 955.498
31.39000 1549.372
31.56000 1112.765
31.73000 593.021
31.90000 461.728
32.07000 402.460
32.24000 401.052
32.41000 369.264
32.58000 385.348
32.75000 377.354
32.92000 457.533
33.09000 380.703
33.26000 332.130
33.43000 336.266
33.60000 340.347
33.77000 331.921
33.94000 337.173
34.11000 326.149
34.28000 323.097
34.45000 322.478
34.62000 314.502
34.79000 333.877
34.96000 334.446
35.13000 306.523
35.30000 326.019
35.47000 312.657
35.64000 325.640
35.81000 300.312
35.98000 310.307
36.15000 308.429
36.32000 296.563
36.49000 312.615
36.66000 286.460
36.83000 290.457
37.00000 311.722
37.17000 309.123
37.34000 299.981
37.51000 298.585
37.68000 274.696
37.85000 300.325
38.02000 293.024
38.19000 285.510
38.36000 362.801
38.53000 680.724
38.70000 1539.781
38.87000 1227.610
39.04000 465.428
39.21000 287.985
39.38000 285.741
39.55000 288.562
39.72000 281.828
39.89000 259.426
40.06000 261.377
40.23000 254.475
40.40000 255.182
40.57000 259.573
40.74000 252.430
40.91000 256.941
41.08000 237.740
41.25000 242.786
41.42000 242.588
41.59000 237.001
41.76000 249.073
41.93000 232.393
42.10000 228.296
42.27000 233.756
42.44000 224.343
42.61000 238.057
42.78000 235.738
42.95000 222.277
43.12000 225.814
43.29000 226.295
43.46000 219.815
43.63000 223.262
43.80000 209.556
43.97000 228.863
44.14000 212.062
44.31000 220.691
44.48000 225.102
44.65000 236.176
44.82000 251.533
44.99000 268.244
45.16000 298.639
45.33000 261.711
45.50000 244.294
45.67000 237.866
45.84000 227.876
46.01000 227.003
46.18000 213.999
46.35000 200.655
46.52000 196.857
46.69000 190.794
46.86000 202.271
47.03000 203.929
47.20000 206.200
47.37000 183.987
47.54000 186.435
47.71000 184.553
47.88000 185.228
48.05000 185.997
48.22000 186.890
48.39000 183.420
48.56000 173.444
48.73000 185.514
48.90000 181.052
49.07000 174.696
49.24000 170.607
49.41000 176.424
49.58000 170.036
49.75000 173.456
49.92000 168.130
50.09000 173.597
50.26000 176.800
50.43000 178.292
50.60000 181.943
50.77000 179.955
50.94000 183.879
51.11000 191.438
51.28000 171.004
51.45000 155.952
51.62000 168.093
51.79000 166.843
51.96000 161.581
52.13000 153.113
52.30000 170.889
52.47000 164.512
52.64000 165.199
52.81000 145.757
52.98000 163.998
53.15000 159.133
53.32000 169.173
53.49000 168.935
53.66000 159.855
53.83000 162.323
54.00000 146.000
54.17000 157.154
54.34000 153.362
54.51000 156.135
54.68000 154.030
54.85000 170.756
55.02000 163.400
55.19000 168.869
55.36000 167.948
55.53000 215.834
55.70000 386.212
55.87000 728.403
56.04000 869.096
56.21000 560.087
56.38000 276.306
56.55000 187.775
56.72000 164.415
56.89000 159.445
57.06000 152.263
57.23000 145.522
57.40000 157.232
57.57000 143.989
57.74000 134.860
57.91000 146.970
58.08000 152.541
58.25000 145.436
58.42000 145.479
58.59000 140.218
58.76000 129.613
58.93000 136.610
59.10000 136.970
59.27000 137.507
59.44000 135.516
59.61000 124.356
59.78000 126.764
59.95000 125.468
60.12000 136.338
60.29000 140.078
60.46000 127.195
60.63000 125.520
60.80000 132.486
60.97000 133.458
61.14000 136.731
61.31000 136.709
61.48000 146.312
61.65000 253.845
61.82000 182.158
61.99000 134.872
62.16000 139.898
62.33000 141.423
62.50000 139.451
62.67000 139.202
62.84000 138.403
63.01000 137.060
63.18000 126.460
63.35000 144.615
63.52000 151.480
63.69000 150.516
63.86000 142.112
64.03000 158.617
64.20000 156.438
64.37000 162.583
64.54000 168.892
64.71000 171.742
64.88000 175.585
65.05000 180.063
65.22000 209.406
65.39000 237.353
65.56000 297.299
65.73000 563.041
65.90000 1019.008
66.07000 331.958
66.24000 311.387
66.41000 425.241
66.58000 318.956
66.75000 308.746
66.92000 322.790
67.09000 326.660
67.26000 352.675
67.43000 386.132
67.60000 414.638
67.77000 452.170
67.94000 482.520
68.11000 522.872
68.28000 593.914
68.45000 692.900
68.62000 916.627
68.79000 1685.246
68.96000 11359.599
69.13000 50312.039
69.30000 29132.145
69.47000 6700.290
69.64000 1135.888
69.81000 751.189
69.98000 642.752
70.00000 629.380