Folder: Master-Thesis/XRD/XRD/24-09-2025 Dep 3/XY Data (part 4)

File: BTO_Mapping_Theta2Theta_24-09-2025_001_32_-29-344_6-237.xy
20.00000 554.316
20.17000 597.295
20.34000 565.586
20.51000 540.953
20.68000 553.768
20.85000 561.150
21.02000 558.889
21.19000 556.458
21.36000 550.597
21.53000 579.263
21.70000 613.981
21.87000 834.966
22.04000 1021.829
22.21000 722.885
22.38000 588.708
22.55000 531.202
22.72000 530.242
22.89000 526.664
23.06000 536.225
23.23000 498.743
23.40000 499.347
23.57000 512.845
23.74000 482.099
23.91000 510.694
24.08000 508.141
24.25000 493.457
24.42000 477.125
24.59000 484.922
24.76000 493.567
24.93000 472.276
25.10000 475.431
25.27000 484.282
25.44000 476.430
25.61000 489.506
25.78000 451.798
25.95000 460.195
26.12000 445.453
26.29000 472.251
26.46000 441.986
26.63000 448.610
26.80000 437.029
26.97000 456.480
27.14000 440.390
27.31000 442.992
27.48000 427.974
27.65000 421.643
27.82000 434.981
27.99000 433.064
28.16000 448.534
28.33000 439.475
28.50000 426.812
28.67000 432.394
28.84000 415.603
29.01000 431.038
29.18000 433.280
29.35000 414.337
29.52000 413.818
29.69000 414.782
29.86000 447.369
30.03000 479.383
30.20000 444.874
30.37000 445.375
30.54000 439.404
30.71000 485.890
30.88000 541.408
31.05000 913.184
31.22000 2679.624
31.39000 3839.704
31.56000 1669.706
31.73000 662.020
31.90000 462.595
32.07000 430.805
32.24000 421.856
32.41000 395.170
32.58000 388.927
32.75000 401.134
32.92000 622.126
33.09000 481.149
33.26000 368.108
33.43000 366.840
33.60000 352.920
33.77000 354.987
33.94000 344.284
34.11000 346.726
34.28000 337.505
34.45000 343.284
34.62000 325.636
34.79000 323.668
34.96000 336.111
35.13000 315.048
35.30000 322.012
35.47000 310.745
35.64000 313.065
35.81000 306.558
35.98000 304.815
36.15000 307.134
36.32000 300.415
36.49000 308.781
36.66000 298.556
36.83000 307.846
37.00000 305.532
37.17000 301.285
37.34000 287.254
37.51000 298.490
37.68000 295.941
37.85000 305.284
38.02000 291.258
38.19000 321.892
38.36000 392.230
38.53000 712.369
38.70000 882.192
38.87000 526.225
39.04000 318.729
39.21000 284.790
39.38000 294.874
39.55000 263.578
39.72000 268.799
39.89000 263.871
40.06000 257.993
40.23000 257.049
40.40000 256.000
40.57000 248.948
40.74000 241.449
40.91000 243.897
41.08000 254.877
41.25000 231.127
41.42000 234.379
41.59000 241.140
41.76000 237.149
41.93000 235.931
42.10000 234.524
42.27000 244.222
42.44000 231.951
42.61000 241.741
42.78000 244.741
42.95000 234.535
43.12000 244.856
43.29000 221.455
43.46000 219.030
43.63000 226.876
43.80000 239.165
43.97000 221.708
44.14000 234.503
44.31000 235.113
44.48000 266.278
44.65000 325.849
44.82000 500.613
44.99000 653.618
45.16000 461.150
45.33000 324.905
45.50000 269.113
45.67000 232.340
45.84000 235.284
46.01000 219.103
46.18000 216.246
46.35000 204.768
46.52000 203.280
46.69000 209.526
46.86000 205.926
47.03000 204.738
47.20000 189.412
47.37000 185.434
47.54000 194.733
47.71000 187.557
47.88000 183.068
48.05000 186.781
48.22000 197.159
48.39000 185.450
48.56000 184.561
48.73000 195.499
48.90000 183.751
49.07000 192.348
49.24000 174.606
49.41000 174.147
49.58000 169.578
49.75000 171.078
49.92000 166.604
50.09000 195.952
50.26000 190.071
50.43000 238.946
50.60000 297.827
50.77000 269.284
50.94000 221.087
51.11000 196.184
51.28000 169.711
51.45000 177.457
51.62000 169.908
51.79000 157.046
51.96000 173.321
52.13000 167.787
52.30000 165.866
52.47000 164.208
52.64000 161.535
52.81000 155.982
52.98000 155.272
53.15000 166.803
53.32000 167.175
53.49000 170.127
53.66000 164.040
53.83000 155.938
54.00000 162.645
54.17000 163.681
54.34000 158.626
54.51000 150.118
54.68000 157.698
54.85000 149.981
55.02000 169.142
55.19000 172.635
55.36000 195.723
55.53000 293.364
55.70000 624.831
55.87000 870.649
56.04000 676.512
56.21000 352.782
56.38000 224.400
56.55000 176.655
56.72000 169.213
56.89000 155.105
57.06000 156.067
57.23000 149.922
57.40000 145.875
57.57000 148.012
57.74000 144.286
57.91000 152.396
58.08000 158.367
58.25000 147.398
58.42000 141.314
58.59000 132.018
58.76000 145.870
58.93000 134.988
59.10000 133.628
59.27000 139.937
59.44000 130.937
59.61000 141.341
59.78000 136.597
59.95000 139.347
60.12000 136.656
60.29000 135.331
60.46000 143.354
60.63000 134.755
60.80000 129.571
60.97000 132.478
61.14000 133.546
61.31000 138.702
61.48000 161.265
61.65000 357.212
61.82000 251.614
61.99000 155.083
62.16000 145.983
62.33000 147.452
62.50000 138.426
62.67000 139.196
62.84000 155.417
63.01000 146.189
63.18000 162.197
63.35000 152.627
63.52000 147.906
63.69000 154.578
63.86000 155.479
64.03000 162.316
64.20000 163.575
64.37000 169.260
64.54000 184.627
64.71000 187.027
64.88000 202.692
65.05000 223.992
65.22000 314.016
65.39000 400.128
65.56000 471.824
65.73000 965.430
65.90000 1660.795
66.07000 486.888
66.24000 373.220
66.41000 588.967
66.58000 400.906
66.75000 382.057
66.92000 372.483
67.09000 398.861
67.26000 438.463
67.43000 469.366
67.60000 519.565
67.77000 559.722
67.94000 600.617
68.11000 646.638
68.28000 750.465
68.45000 880.660
68.62000 1347.641
68.79000 2691.907
68.96000 22839.393
69.13000 91073.070
69.30000 53584.621
69.47000 12831.786
69.64000 1607.365
69.81000 1023.788
69.98000 778.399
70.00000 764.329

File: BTO_Mapping_Theta2Theta_24-09-2025_001_34_-9-781_-2-079.xy
20.00000 576.839
20.17000 587.333
20.34000 566.325
20.51000 565.414
20.68000 554.858
20.85000 549.959
21.02000 565.360
21.19000 539.206
21.36000 548.679
21.53000 546.138
21.70000 567.917
21.87000 665.643
22.04000 793.704
22.21000 669.006
22.38000 601.817
22.55000 548.301
22.72000 535.891
22.89000 520.706
23.06000 497.112
23.23000 530.155
23.40000 494.438
23.57000 496.300
23.74000 507.798
23.91000 502.653
24.08000 488.398
24.25000 488.201
24.42000 492.873
24.59000 468.683
24.76000 475.853
24.93000 474.764
25.10000 466.196
25.27000 462.883
25.44000 477.717
25.61000 467.783
25.78000 468.217
25.95000 452.948
26.12000 450.712
26.29000 453.056
26.46000 435.361
26.63000 454.843
26.80000 440.201
26.97000 432.654
27.14000 452.460
27.31000 447.163
27.48000 437.610
27.65000 427.103
27.82000 422.310
27.99000 443.689
28.16000 427.113
28.33000 439.138
28.50000 425.379
28.67000 419.607
28.84000 416.226
29.01000 410.532
29.18000 411.559
29.35000 405.246
29.52000 419.641
29.69000 439.120
29.86000 423.315
30.03000 445.262
30.20000 455.631
30.37000 420.810
30.54000 436.736
30.71000 442.949
30.88000 503.660
31.05000 786.280
31.22000 2176.758
31.39000 3697.289
31.56000 1934.114
31.73000 738.311
31.90000 470.610
32.07000 429.331
32.24000 420.050
32.41000 385.770
32.58000 390.247
32.75000 385.118
32.92000 522.963
33.09000 406.463
33.26000 359.382
33.43000 348.346
33.60000 343.432
33.77000 344.562
33.94000 339.534
34.11000 333.286
34.28000 336.750
34.45000 347.751
34.62000 326.416
34.79000 334.163
34.96000 305.611
35.13000 311.097
35.30000 316.126
35.47000 308.971
35.64000 314.470
35.81000 310.317
35.98000 292.950
36.15000 301.005
36.32000 306.629
36.49000 295.187
36.66000 292.202
36.83000 309.405
37.00000 314.492
37.17000 306.798
37.34000 309.036
37.51000 303.728
37.68000 289.896
37.85000 287.193
38.02000 297.123
38.19000 316.334
38.36000 392.956
38.53000 826.417
38.70000 1378.934
38.87000 835.728
39.04000 368.123
39.21000 302.140
39.38000 273.742
39.55000 281.365
39.72000 283.891
39.89000 278.622
40.06000 261.757
40.23000 260.499
40.40000 253.678
40.57000 245.251
40.74000 254.207
40.91000 255.798
41.08000 252.469
41.25000 232.199
41.42000 238.351
41.59000 237.738
41.76000 246.109
41.93000 237.422
42.10000 240.457
42.27000 242.183
42.44000 225.743
42.61000 229.529
42.78000 233.653
42.95000 237.143
43.12000 235.190
43.29000 224.370
43.46000 239.481
43.63000 212.744
43.80000 217.448
43.97000 228.851
44.14000 221.031
44.31000 213.579
44.48000 233.856
44.65000 249.039
44.82000 292.530
44.99000 430.243
45.16000 404.056
45.33000 321.569
45.50000 275.988
45.67000 247.046
45.84000 226.993
46.01000 221.541
46.18000 205.736
46.35000 214.198
46.52000 199.855
46.69000 196.162
46.86000 195.730
47.03000 199.040
47.20000 199.941
47.37000 194.273
47.54000 202.412
47.71000 188.320
47.88000 182.895
48.05000 194.958
48.22000 185.882
48.39000 181.663
48.56000 182.335
48.73000 171.767
48.90000 188.327
49.07000 180.155
49.24000 182.746
49.41000 183.539
49.58000 179.013
49.75000 171.006
49.92000 180.204
50.09000 185.595
50.26000 184.649
50.43000 201.792
50.60000 264.094
50.77000 270.285
50.94000 212.671
51.11000 184.714
51.28000 184.301
51.45000 170.067
51.62000 168.774
51.79000 169.862
51.96000 162.543
52.13000 164.904
52.30000 153.952
52.47000 164.905
52.64000 158.119
52.81000 155.940
52.98000 157.007
53.15000 170.293
53.32000 177.016
53.49000 165.417
53.66000 158.774
53.83000 157.196
54.00000 150.908
54.17000 154.871
54.34000 156.227
54.51000 162.417
54.68000 147.050
54.85000 161.605
55.02000 164.288
55.19000 163.048
55.36000 194.524
55.53000 228.480
55.70000 441.142
55.87000 784.758
56.04000 715.941
56.21000 379.325
56.38000 230.092
56.55000 188.541
56.72000 166.994
56.89000 152.400
57.06000 152.086
57.23000 150.567
57.40000 141.020
57.57000 148.692
57.74000 140.142
57.91000 138.997
58.08000 147.947
58.25000 148.290
58.42000 139.195
58.59000 147.978
58.76000 137.098
58.93000 126.586
59.10000 137.400
59.27000 143.260
59.44000 140.972
59.61000 134.145
59.78000 127.521
59.95000 138.395
60.12000 138.310
60.29000 132.119
60.46000 132.896
60.63000 129.050
60.80000 132.122
60.97000 133.380
61.14000 132.792
61.31000 129.957
61.48000 143.954
61.65000 286.165
61.82000 203.579
61.99000 142.751
62.16000 140.779
62.33000 138.032
62.50000 136.867
62.67000 146.304
62.84000 147.162
63.01000 154.842
63.18000 144.132
63.35000 138.995
63.52000 146.728
63.69000 156.299
63.86000 155.533
64.03000 158.184
64.20000 141.621
64.37000 148.427
64.54000 180.998
64.71000 177.368
64.88000 185.162
65.05000 212.519
65.22000 260.237
65.39000 340.371
65.56000 434.359
65.73000 791.620
65.90000 1245.112
66.07000 409.961
66.24000 329.202
66.41000 477.660
66.58000 348.376
66.75000 320.029
66.92000 334.702
67.09000 362.136
67.26000 377.719
67.43000 403.918
67.60000 449.357
67.77000 502.057
67.94000 525.753
68.11000 544.373
68.28000 628.627
68.45000 718.059
68.62000 1078.629
68.79000 2075.781
68.96000 15266.893
69.13000 64204.375
69.30000 37290.531
69.47000 8468.779
69.64000 1274.961
69.81000 860.627
69.98000 695.630
70.00000 682.603

File: BTO_Mapping_Theta2Theta_24-09-2025_001_35_-19-563_-4-158.xy
20.00000 548.755
20.17000 553.472
20.34000 552.495
20.51000 563.889
20.68000 556.108
20.85000 555.381
21.02000 554.115
21.19000 552.620
21.36000 525.643
21.53000 548.887
21.70000 597.964
21.87000 766.390
22.04000 966.073
22.21000 750.329
22.38000 603.306
22.55000 544.320
22.72000 526.281
22.89000 514.108
23.06000 519.744
23.23000 523.027
23.40000 518.015
23.57000 492.452
23.74000 493.452
23.91000 501.664
24.08000 503.469
24.25000 485.359
24.42000 474.184
24.59000 493.345
24.76000 469.681
24.93000 472.454
25.10000 477.989
25.27000 476.524
25.44000 468.282
25.61000 468.751
25.78000 460.173
25.95000 470.192
26.12000 444.745
26.29000 448.971
26.46000 434.424
26.63000 468.859
26.80000 450.870
26.97000 431.462
27.14000 438.905
27.31000 452.034
27.48000 433.609
27.65000 423.347
27.82000 433.953
27.99000 453.457
28.16000 443.171
28.33000 442.615
28.50000 426.908
28.67000 426.373
28.84000 432.041
29.01000 419.652
29.18000 413.577
29.35000 402.431
29.52000 416.064
29.69000 421.816
29.86000 446.371
30.03000 472.822
30.20000 440.229
30.37000 424.432
30.54000 431.783
30.71000 445.298
30.88000 519.558
31.05000 802.318
31.22000 2212.256
31.39000 3476.702
31.56000 1749.557
31.73000 680.390
31.90000 452.340
32.07000 421.970
32.24000 399.021
32.41000 407.322
32.58000 382.444
32.75000 402.180
32.92000 569.321
33.09000 456.685
33.26000 365.909
33.43000 359.944
33.60000 334.385
33.77000 332.585
33.94000 333.113
34.11000 335.489
34.28000 321.588
34.45000 322.396
34.62000 331.623
34.79000 314.475
34.96000 328.333
35.13000 318.821
35.30000 309.612
35.47000 304.291
35.64000 311.851
35.81000 306.280
35.98000 309.551
36.15000 282.006
36.32000 308.849
36.49000 303.471
36.66000 300.228
36.83000 298.402
37.00000 315.261
37.17000 307.912
37.34000 295.386
37.51000 294.861
37.68000 312.431
37.85000 289.281
38.02000 292.132
38.19000 306.250
38.36000 395.955
38.53000 800.064
38.70000 1112.169
38.87000 653.422
39.04000 343.974
39.21000 300.560
39.38000 286.117
39.55000 270.344
39.72000 271.370
39.89000 273.441
40.06000 279.962
40.23000 272.181
40.40000 274.184
40.57000 242.146
40.74000 260.624
40.91000 253.976
41.08000 248.870
41.25000 243.815
41.42000 239.287
41.59000 238.130
41.76000 252.286
41.93000 242.561
42.10000 232.054
42.27000 248.732
42.44000 240.078
42.61000 230.965
42.78000 238.124
42.95000 221.667
43.12000 230.441
43.29000 214.494
43.46000 235.816
43.63000 215.033
43.80000 211.476
43.97000 225.540
44.14000 226.238
44.31000 224.455
44.48000 228.839
44.65000 269.266
44.82000 440.180
44.99000 590.323
45.16000 483.239
45.33000 338.611
45.50000 283.291
45.67000 243.705
45.84000 229.053
46.01000 222.168
46.18000 208.743
46.35000 204.560
46.52000 202.163
46.69000 211.567
46.86000 207.224
47.03000 186.320
47.20000 190.065
47.37000 184.587
47.54000 183.716
47.71000 199.023
47.88000 177.610
48.05000 190.925
48.22000 182.856
48.39000 201.683
48.56000 191.190
48.73000 173.103
48.90000 182.760
49.07000 180.721
49.24000 193.261
49.41000 180.898
49.58000 173.075
49.75000 175.248
49.92000 169.101
50.09000 191.811
50.26000 187.049
50.43000 224.362
50.60000 285.928
50.77000 266.529
50.94000 225.964
51.11000 183.986
51.28000 170.014
51.45000 181.226
51.62000 167.847
51.79000 164.783
51.96000 169.510
52.13000 175.044
52.30000 158.161
52.47000 158.208
52.64000 158.436
52.81000 164.560
52.98000 164.443
53.15000 167.230
53.32000 174.067
53.49000 149.637
53.66000 161.256
53.83000 153.411
54.00000 158.812
54.17000 165.171
54.34000 156.310
54.51000 158.632
54.68000 158.693
54.85000 166.312
55.02000 166.420
55.19000 172.435
55.36000 190.286
55.53000 251.195
55.70000 534.625
55.87000 844.538
56.04000 733.820
56.21000 365.857
56.38000 237.392
56.55000 186.539
56.72000 160.524
56.89000 151.692
57.06000 141.699
57.23000 149.889
57.40000 147.146
57.57000 138.656
57.74000 144.067
57.91000 146.235
58.08000 152.017
58.25000 140.912
58.42000 134.906
58.59000 146.962
58.76000 138.724
58.93000 132.397
59.10000 142.899
59.27000 141.134
59.44000 137.354
59.61000 133.107
59.78000 146.465
59.95000 122.110
60.12000 131.242
60.29000 138.978
60.46000 129.180
60.63000 133.613
60.80000 130.678
60.97000 134.586
61.14000 144.072
61.31000 129.593
61.48000 159.705
61.65000 319.568
61.82000 221.218
61.99000 150.736
62.16000 139.290
62.33000 148.167
62.50000 144.424
62.67000 136.309
62.84000 148.149
63.01000 138.352
63.18000 144.769
63.35000 150.216
63.52000 149.132
63.69000 166.375
63.86000 139.654
64.03000 157.092
64.20000 155.743
64.37000 152.482
64.54000 169.845
64.71000 167.984
64.88000 204.910
65.05000 215.270
65.22000 264.160
65.39000 365.140
65.56000 436.162
65.73000 863.214
65.90000 1427.072
66.07000 458.155
66.24000 363.945
66.41000 559.095
66.58000 394.398
66.75000 343.180
66.92000 364.422
67.09000 380.674
67.26000 426.044
67.43000 437.870
67.60000 480.197
67.77000 507.096
67.94000 557.114
68.11000 599.728
68.28000 671.397
68.45000 788.767
68.62000 1198.932
68.79000 2464.333
68.96000 19422.563
69.13000 77543.914
69.30000 45413.215
69.47000 10461.484
69.64000 1446.126
69.81000 942.014
69.98000 755.217
70.00000 744.804

File: BTO_Mapping_Theta2Theta_24-09-2025_001_36_-29-344_-6-237.xy
20.00000 590.219
20.17000 580.745
20.34000 554.760
20.51000 556.202
20.68000 574.859
20.85000 540.970
21.02000 557.080
21.19000 543.743
21.36000 564.744
21.53000 541.787
21.70000 609.216
21.87000 817.177
22.04000 1015.194
22.21000 702.165
22.38000 579.289
22.55000 540.641
22.72000 535.256
22.89000 518.102
23.06000 507.548
23.23000 478.246
23.40000 511.801
23.57000 505.890
23.74000 498.618
23.91000 494.305
24.08000 507.697
24.25000 483.783
24.42000 484.449
24.59000 502.146
24.76000 499.984
24.93000 460.956
25.10000 482.971
25.27000 457.192
25.44000 490.984
25.61000 469.048
25.78000 479.250
25.95000 464.308
26.12000 462.239
26.29000 476.751
26.46000 459.360
26.63000 466.350
26.80000 462.661
26.97000 463.439
27.14000 445.061
27.31000 436.505
27.48000 449.338
27.65000 454.425
27.82000 442.575
27.99000 440.586
28.16000 428.231
28.33000 442.174
28.50000 441.352
28.67000 424.440
28.84000 424.233
29.01000 417.516
29.18000 409.817
29.35000 431.762
29.52000 432.293
29.69000 414.399
29.86000 462.391
30.03000 475.700
30.20000 453.413
30.37000 446.424
30.54000 465.584
30.71000 455.116
30.88000 518.015
31.05000 957.623
31.22000 2817.931
31.39000 3732.414
31.56000 1617.473
31.73000 660.438
31.90000 475.709
32.07000 422.964
32.24000 396.640
32.41000 384.371
32.58000 387.193
32.75000 400.905
32.92000 613.768
33.09000 454.890
33.26000 379.439
33.43000 368.921
33.60000 341.996
33.77000 343.947
33.94000 348.803
34.11000 343.645
34.28000 339.306
34.45000 340.239
34.62000 316.704
34.79000 346.853
34.96000 315.943
35.13000 318.734
35.30000 308.960
35.47000 313.350
35.64000 318.525
35.81000 318.155
35.98000 314.100
36.15000 334.397
36.32000 309.332
36.49000 306.569
36.66000 313.409
36.83000 295.459
37.00000 324.305
37.17000 312.758
37.34000 303.937
37.51000 307.521
37.68000 292.629
37.85000 307.037
38.02000 304.742
38.19000 300.487
38.36000 396.041
38.53000 755.008
38.70000 884.147
38.87000 515.888
39.04000 322.670
39.21000 289.634
39.38000 276.660
39.55000 279.875
39.72000 282.133
39.89000 272.640
40.06000 251.339
40.23000 256.662
40.40000 254.101
40.57000 244.827
40.74000 244.765
40.91000 243.770
41.08000 249.205
41.25000 266.014
41.42000 237.489
41.59000 247.491
41.76000 239.594
41.93000 236.991
42.10000 247.361
42.27000 235.757
42.44000 232.558
42.61000 246.799
42.78000 236.084
42.95000 229.257
43.12000 241.116
43.29000 219.927
43.46000 222.747
43.63000 217.297
43.80000 232.259
43.97000 230.963
44.14000 236.698
44.31000 242.127
44.48000 272.133
44.65000 340.087
44.82000 567.795
44.99000 640.108
45.16000 465.185
45.33000 329.084
45.50000 273.140
45.67000 237.965
45.84000 211.681
46.01000 221.396
46.18000 195.897
46.35000 198.905
46.52000 200.624
46.69000 201.136
46.86000 190.050
47.03000 196.962
47.20000 201.556
47.37000 189.741
47.54000 195.719
47.71000 184.025
47.88000 184.878
48.05000 184.266
48.22000 192.889
48.39000 202.409
48.56000 177.727
48.73000 183.184
48.90000 184.248
49.07000 172.024
49.24000 189.583
49.41000 186.502
49.58000 180.004
49.75000 164.103
49.92000 179.001
50.09000 184.090
50.26000 202.659
50.43000 247.133
50.60000 279.892
50.77000 269.535
50.94000 210.143
51.11000 200.377
51.28000 188.643
51.45000 169.942
51.62000 171.386
51.79000 166.574
51.96000 168.799
52.13000 165.499
52.30000 158.823
52.47000 160.633
52.64000 161.830
52.81000 154.932
52.98000 152.046
53.15000 167.302
53.32000 172.450
53.49000 154.536
53.66000 166.395
53.83000 152.380
54.00000 161.017
54.17000 157.271
54.34000 155.754
54.51000 169.055
54.68000 157.026
54.85000 168.064
55.02000 165.566
55.19000 178.569
55.36000 206.103
55.53000 323.878
55.70000 639.825
55.87000 864.250
56.04000 638.904
56.21000 329.035
56.38000 196.881
56.55000 169.520
56.72000 168.997
56.89000 155.594
57.06000 155.650
57.23000 145.855
57.40000 147.161
57.57000 145.511
57.74000 147.356
57.91000 143.966
58.08000 145.690
58.25000 132.189
58.42000 141.337
58.59000 139.549
58.76000 135.954
58.93000 143.877
59.10000 142.454
59.27000 140.748
59.44000 119.629
59.61000 130.951
59.78000 122.941
59.95000 147.152
60.12000 144.327
60.29000 141.325
60.46000 131.720
60.63000 138.808
60.80000 136.546
60.97000 147.094
61.14000 131.547
61.31000 147.474
61.48000 147.647
61.65000 384.586
61.82000 241.253
61.99000 158.887
62.16000 146.654
62.33000 138.318
62.50000 146.164
62.67000 148.440
62.84000 138.601
63.01000 141.925
63.18000 151.209
63.35000 161.727
63.52000 150.818
63.69000 154.135
63.86000 150.544
64.03000 160.287
64.20000 166.852
64.37000 177.049
64.54000 186.800
64.71000 186.632
64.88000 193.698
65.05000 229.915
65.22000 305.535
65.39000 409.015
65.56000 457.401
65.73000 954.068
65.90000 1678.368
66.07000 508.257
66.24000 383.548
66.41000 597.418
66.58000 414.582
66.75000 372.856
66.92000 365.754
67.09000 418.382
67.26000 439.648
67.43000 470.339
67.60000 518.622
67.77000 540.069
67.94000 591.714
68.11000 666.864
68.28000 728.321
68.45000 882.845
68.62000 1360.790
68.79000 2720.660
68.96000 23431.162
69.13000 92019.094
69.30000 54199.215
69.47000 12734.002
69.64000 1591.464
69.81000 1030.694
69.98000 823.542
70.00000 802.458

File: BTO_Mapping_Theta2Theta_24-09-2025_001_37_-39-126_-8-316.xy
20.00000 551.860
20.17000 580.279
20.34000 562.453
20.51000 575.636
20.68000 559.184
20.85000 564.877
21.02000 571.177
21.19000 555.609
21.36000 550.714
21.53000 555.153
21.70000 690.905
21.87000 982.128
22.04000 898.163
22.21000 652.393
22.38000 589.024
22.55000 546.869
22.72000 530.975
22.89000 529.068
23.06000 514.789
23.23000 493.001
23.40000 501.231
23.57000 511.445
23.74000 498.040
23.91000 496.458
24.08000 499.296
24.25000 501.065
24.42000 486.306
24.59000 476.734
24.76000 503.155
24.93000 485.022
25.10000 481.371
25.27000 482.861
25.44000 473.775
25.61000 458.215
25.78000 476.126
25.95000 458.747
26.12000 468.442
26.29000 456.740
26.46000 455.989
26.63000 464.614
26.80000 472.895
26.97000 459.250
27.14000 452.776
27.31000 437.965
27.48000 453.504
27.65000 442.079
27.82000 437.989
27.99000 459.353
28.16000 461.589
28.33000 443.162
28.50000 440.186
28.67000 417.245
28.84000 436.115
29.01000 429.660
29.18000 413.178
29.35000 435.995
29.52000 438.409
29.69000 446.341
29.86000 471.759
30.03000 498.969
30.20000 479.075
30.37000 442.741
30.54000 480.547
30.71000 483.567
30.88000 680.914
31.05000 2112.915
31.22000 4838.839
31.39000 2964.538
31.56000 880.266
31.73000 532.395
31.90000 445.649
32.07000 404.730
32.24000 408.508
32.41000 397.578
32.58000 389.264
32.75000 393.201
32.92000 584.485
33.09000 454.872
33.26000 369.449
33.43000 357.220
33.60000 357.700
33.77000 351.292
33.94000 336.592
34.11000 334.428
34.28000 341.275
34.45000 330.266
34.62000 336.418
34.79000 313.074
34.96000 344.871
35.13000 335.707
35.30000 313.309
35.47000 317.574
35.64000 308.114
35.81000 295.225
35.98000 316.919
36.15000 297.387
36.32000 310.140
36.49000 307.293
36.66000 296.972
36.83000 312.920
37.00000 299.298
37.17000 293.664
37.34000 305.846
37.51000 311.292
37.68000 295.994
37.85000 291.971
38.02000 307.275
38.19000 341.202
38.36000 484.601
38.53000 675.088
38.70000 547.125
38.87000 363.711
39.04000 302.180
39.21000 274.168
39.38000 288.152
39.55000 267.655
39.72000 268.187
39.89000 260.091
40.06000 266.270
40.23000 263.522
40.40000 258.024
40.57000 246.640
40.74000 246.148
40.91000 255.653
41.08000 245.449
41.25000 237.041
41.42000 227.392
41.59000 234.989
41.76000 241.198
41.93000 233.383
42.10000 241.627
42.27000 232.478
42.44000 237.964
42.61000 240.429
42.78000 241.143
42.95000 244.428
43.12000 239.246
43.29000 239.046
43.46000 239.676
43.63000 241.517
43.80000 234.248
43.97000 243.970
44.14000 248.762
44.31000 279.090
44.48000 371.442
44.65000 531.510
44.82000 655.310
44.99000 484.867
45.16000 338.234
45.33000 285.766
45.50000 249.519
45.67000 223.982
45.84000 214.579
46.01000 209.028
46.18000 221.240
46.35000 210.086
46.52000 220.491
46.69000 199.858
46.86000 196.421
47.03000 197.394
47.20000 192.410
47.37000 205.729
47.54000 189.845
47.71000 184.120
47.88000 200.663
48.05000 200.587
48.22000 179.145
48.39000 196.474
48.56000 180.821
48.73000 180.045
48.90000 180.967
49.07000 179.767
49.24000 176.865
49.41000 171.187
49.58000 178.835
49.75000 192.280
49.92000 183.027
50.09000 201.167
50.26000 261.270
50.43000 296.999
50.60000 277.437
50.77000 224.980
50.94000 191.981
51.11000 179.755
51.28000 176.587
51.45000 184.359
51.62000 172.272
51.79000 177.771
51.96000 169.437
52.13000 162.290
52.30000 166.267
52.47000 169.093
52.64000 166.084
52.81000 160.987
52.98000 163.106
53.15000 158.527
53.32000 159.336
53.49000 186.567
53.66000 166.037
53.83000 157.740
54.00000 158.621
54.17000 158.802
54.34000 156.102
54.51000 168.683
54.68000 154.575
54.85000 164.074
55.02000 173.921
55.19000 208.816
55.36000 318.484
55.53000 584.153
55.70000 798.757
55.87000 585.884
56.04000 321.521
56.21000 215.549
56.38000 168.848
56.55000 168.079
56.72000 162.960
56.89000 153.466
57.06000 153.915
57.23000 147.031
57.40000 153.999
57.57000 154.571
57.74000 143.597
57.91000 145.984
58.08000 140.115
58.25000 144.283
58.42000 146.430
58.59000 150.861
58.76000 134.919
58.93000 134.696
59.10000 133.286
59.27000 144.114
59.44000 139.237
59.61000 141.411
59.78000 134.474
59.95000 137.971
60.12000 133.126
60.29000 138.153
60.46000 125.374
60.63000 132.787
60.80000 140.032
60.97000 135.408
61.14000 134.684
61.31000 137.058
61.48000 159.868
61.65000 365.548
61.82000 246.771
61.99000 154.405
62.16000 154.939
62.33000 145.815
62.50000 145.675
62.67000 153.152
62.84000 160.419
63.01000 141.386
63.18000 141.752
63.35000 150.197
63.52000 155.463
63.69000 154.990
63.86000 164.025
64.03000 160.153
64.20000 156.732
64.37000 159.383
64.54000 174.549
64.71000 206.245
64.88000 270.208
65.05000 402.087
65.22000 465.207
65.39000 418.960
65.56000 364.626
65.73000 849.662
65.90000 1650.922
66.07000 472.444
66.24000 376.617
66.41000 573.192
66.58000 410.379
66.75000 355.258
66.92000 390.752
67.09000 400.375
67.26000 425.491
67.43000 473.288
67.60000 475.418
67.77000 550.022
67.94000 580.820
68.11000 653.924
68.28000 678.982
68.45000 854.910
68.62000 1239.363
68.79000 2482.064
68.96000 18915.088
69.13000 86305.852
69.30000 49960.055
69.47000 11722.895
69.64000 1532.033
69.81000 992.582
69.98000 768.204
70.00000 735.003