Folder: Master-Thesis/XRD/25-09-2025/XY Data (part 2)

File: BTO_Mapping_Theta2Theta_25-09-2025_001_13_26-765_29-726.xy
20.00000 521.915
20.17000 546.701
20.34000 534.939
20.51000 549.416
20.68000 551.957
20.85000 547.800
21.02000 553.064
21.19000 525.121
21.36000 542.545
21.53000 535.053
21.70000 539.189
21.87000 586.617
22.04000 582.029
22.21000 591.389
22.38000 571.342
22.55000 528.210
22.72000 539.658
22.89000 510.653
23.06000 489.914
23.23000 498.433
23.40000 492.053
23.57000 477.977
23.74000 475.379
23.91000 478.629
24.08000 508.379
24.25000 486.971
24.42000 471.493
24.59000 469.296
24.76000 475.722
24.93000 474.730
25.10000 471.225
25.27000 465.327
25.44000 479.874
25.61000 462.335
25.78000 456.971
25.95000 445.380
26.12000 436.132
26.29000 427.891
26.46000 443.842
26.63000 444.100
26.80000 435.174
26.97000 450.097
27.14000 437.551
27.31000 428.248
27.48000 426.761
27.65000 434.312
27.82000 428.340
27.99000 425.530
28.16000 428.604
28.33000 418.709
28.50000 423.765
28.67000 426.051
28.84000 430.553
29.01000 424.171
29.18000 411.683
29.35000 407.637
29.52000 403.653
29.69000 399.690
29.86000 409.583
30.03000 394.830
30.20000 422.374
30.37000 406.256
30.54000 407.751
30.71000 405.227
30.88000 445.865
31.05000 499.535
31.22000 761.277
31.39000 1149.534
31.56000 906.560
31.73000 574.606
31.90000 443.653
32.07000 431.814
32.24000 382.848
32.41000 384.288
32.58000 366.288
32.75000 360.492
32.92000 387.135
33.09000 346.063
33.26000 338.223
33.43000 332.962
33.60000 325.095
33.77000 337.266
33.94000 324.255
34.11000 322.017
34.28000 318.562
34.45000 326.917
34.62000 326.478
34.79000 308.981
34.96000 310.971
35.13000 319.245
35.30000 306.002
35.47000 310.451
35.64000 306.102
35.81000 289.425
35.98000 299.972
36.15000 294.273
36.32000 298.650
36.49000 297.599
36.66000 300.790
36.83000 297.233
37.00000 283.060
37.17000 296.740
37.34000 291.311
37.51000 289.399
37.68000 283.691
37.85000 287.204
38.02000 279.636
38.19000 289.357
38.36000 304.559
38.53000 403.169
38.70000 596.839
38.87000 440.494
39.04000 316.734
39.21000 278.747
39.38000 274.768
39.55000 282.159
39.72000 268.033
39.89000 260.614
40.06000 249.033
40.23000 252.529
40.40000 234.408
40.57000 249.681
40.74000 257.911
40.91000 239.175
41.08000 247.712
41.25000 246.304
41.42000 255.638
41.59000 241.810
41.76000 227.578
41.93000 240.716
42.10000 217.903
42.27000 232.769
42.44000 226.756
42.61000 227.571
42.78000 229.490
42.95000 229.158
43.12000 240.337
43.29000 225.599
43.46000 232.728
43.63000 213.434
43.80000 222.757
43.97000 215.270
44.14000 219.661
44.31000 211.887
44.48000 225.648
44.65000 216.891
44.82000 222.864
44.99000 231.275
45.16000 249.758
45.33000 246.530
45.50000 247.429
45.67000 248.266
45.84000 223.941
46.01000 213.946
46.18000 200.375
46.35000 210.097
46.52000 203.261
46.69000 207.327
46.86000 194.726
47.03000 187.808
47.20000 190.511
47.37000 187.209
47.54000 180.083
47.71000 187.128
47.88000 181.662
48.05000 189.914
48.22000 184.479
48.39000 182.558
48.56000 169.928
48.73000 175.764
48.90000 188.675
49.07000 176.849
49.24000 179.824
49.41000 166.301
49.58000 191.808
49.75000 173.669
49.92000 177.628
50.09000 172.307
50.26000 168.536
50.43000 185.223
50.60000 178.106
50.77000 184.222
50.94000 167.137
51.11000 182.084
51.28000 185.792
51.45000 166.711
51.62000 167.439
51.79000 166.991
51.96000 164.371
52.13000 157.741
52.30000 153.123
52.47000 155.275
52.64000 162.013
52.81000 145.156
52.98000 147.817
53.15000 156.660
53.32000 150.067
53.49000 169.786
53.66000 154.303
53.83000 152.358
54.00000 159.575
54.17000 154.198
54.34000 153.642
54.51000 155.290
54.68000 152.772
54.85000 160.424
55.02000 145.269
55.19000 157.442
55.36000 168.746
55.53000 176.378
55.70000 220.032
55.87000 277.402
56.04000 283.839
56.21000 222.947
56.38000 189.331
56.55000 158.791
56.72000 148.734
56.89000 149.426
57.06000 144.773
57.23000 145.935
57.40000 146.324
57.57000 139.699
57.74000 148.185
57.91000 133.785
58.08000 144.492
58.25000 137.510
58.42000 139.502
58.59000 144.835
58.76000 124.396
58.93000 137.066
59.10000 137.374
59.27000 133.854
59.44000 134.056
59.61000 134.331
59.78000 129.563
59.95000 128.557
60.12000 135.409
60.29000 122.355
60.46000 130.320
60.63000 120.459
60.80000 126.299
60.97000 135.889
61.14000 134.673
61.31000 140.579
61.48000 140.642
61.65000 238.606
61.82000 207.734
61.99000 146.941
62.16000 138.124
62.33000 146.234
62.50000 143.460
62.67000 139.910
62.84000 150.231
63.01000 146.926
63.18000 142.443
63.35000 151.712
63.52000 138.580
63.69000 132.569
63.86000 163.173
64.03000 162.542
64.20000 170.658
64.37000 164.518
64.54000 176.020
64.71000 174.298
64.88000 179.945
65.05000 185.404
65.22000 215.511
65.39000 232.576
65.56000 274.321
65.73000 534.501
65.90000 1033.102
66.07000 385.112
66.24000 325.717
66.41000 445.887
66.58000 362.168
66.75000 323.629
66.92000 357.776
67.09000 375.467
67.26000 366.289
67.43000 408.963
67.60000 447.049
67.77000 488.146
67.94000 511.823
68.11000 554.112
68.28000 652.464
68.45000 722.915
68.62000 1004.699
68.79000 1781.397
68.96000 9637.420
69.13000 53995.012
69.30000 32860.801
69.47000 8789.678
69.64000 1289.101
69.81000 820.580
69.98000 671.707
70.00000 667.751

File: BTO_Mapping_Theta2Theta_25-09-2025_001_14_3-090_9-511.xy
20.00000 574.552
20.17000 562.312
20.34000 554.512
20.51000 546.718
20.68000 550.035
20.85000 546.195
21.02000 535.666
21.19000 531.140
21.36000 546.471
21.53000 523.426
21.70000 566.573
21.87000 566.486
22.04000 617.811
22.21000 609.693
22.38000 585.467
22.55000 539.423
22.72000 526.820
22.89000 510.237
23.06000 494.175
23.23000 491.601
23.40000 485.525
23.57000 496.671
23.74000 496.159
23.91000 494.782
24.08000 501.297
24.25000 479.075
24.42000 463.620
24.59000 475.641
24.76000 482.358
24.93000 465.185
25.10000 485.241
25.27000 476.558
25.44000 468.298
25.61000 442.988
25.78000 465.042
25.95000 454.584
26.12000 439.618
26.29000 446.229
26.46000 441.259
26.63000 446.235
26.80000 449.927
26.97000 449.027
27.14000 429.732
27.31000 422.026
27.48000 434.593
27.65000 442.817
27.82000 421.739
27.99000 431.098
28.16000 415.807
28.33000 418.771
28.50000 405.110
28.67000 398.845
28.84000 412.376
29.01000 407.276
29.18000 388.437
29.35000 413.769
29.52000 396.374
29.69000 408.735
29.86000 401.308
30.03000 404.017
30.20000 408.286
30.37000 412.876
30.54000 397.040
30.71000 415.619
30.88000 432.296
31.05000 502.645
31.22000 910.649
31.39000 1393.070
31.56000 959.923
31.73000 561.149
31.90000 438.986
32.07000 402.764
32.24000 387.826
32.41000 383.922
32.58000 373.968
32.75000 351.284
32.92000 350.909
33.09000 342.073
33.26000 326.996
33.43000 334.197
33.60000 326.600
33.77000 343.458
33.94000 330.485
34.11000 308.325
34.28000 323.477
34.45000 325.578
34.62000 319.423
34.79000 311.103
34.96000 322.544
35.13000 317.538
35.30000 309.604
35.47000 308.600
35.64000 301.112
35.81000 293.146
35.98000 304.861
36.15000 307.377
36.32000 288.139
36.49000 280.103
36.66000 287.928
36.83000 305.357
37.00000 312.940
37.17000 297.694
37.34000 290.756
37.51000 276.645
37.68000 280.187
37.85000 273.918
38.02000 287.474
38.19000 297.254
38.36000 321.176
38.53000 473.083
38.70000 814.623
38.87000 655.233
39.04000 349.172
39.21000 274.426
39.38000 274.554
39.55000 270.717
39.72000 261.093
39.89000 268.667
40.06000 280.646
40.23000 248.811
40.40000 245.689
40.57000 249.129
40.74000 241.338
40.91000 235.726
41.08000 241.682
41.25000 240.538
41.42000 241.137
41.59000 243.996
41.76000 249.726
41.93000 238.270
42.10000 236.904
42.27000 238.920
42.44000 226.598
42.61000 227.886
42.78000 235.972
42.95000 223.324
43.12000 219.935
43.29000 207.285
43.46000 214.605
43.63000 216.683
43.80000 228.863
43.97000 217.221
44.14000 218.130
44.31000 219.928
44.48000 215.108
44.65000 210.191
44.82000 233.042
44.99000 252.296
45.16000 259.831
45.33000 248.106
45.50000 244.276
45.67000 244.200
45.84000 229.417
46.01000 207.503
46.18000 217.251
46.35000 201.723
46.52000 196.309
46.69000 187.781
46.86000 197.000
47.03000 196.663
47.20000 187.556
47.37000 191.595
47.54000 189.659
47.71000 176.952
47.88000 189.640
48.05000 180.375
48.22000 171.227
48.39000 185.620
48.56000 177.911
48.73000 184.051
48.90000 173.804
49.07000 169.535
49.24000 181.739
49.41000 162.602
49.58000 175.089
49.75000 167.555
49.92000 172.629
50.09000 176.181
50.26000 160.644
50.43000 185.241
50.60000 189.248
50.77000 194.157
50.94000 200.455
51.11000 169.769
51.28000 179.426
51.45000 159.566
51.62000 156.491
51.79000 153.487
51.96000 163.885
52.13000 158.616
52.30000 158.559
52.47000 156.039
52.64000 158.140
52.81000 158.881
52.98000 152.140
53.15000 149.694
53.32000 156.203
53.49000 153.354
53.66000 155.272
53.83000 159.072
54.00000 162.468
54.17000 157.581
54.34000 145.170
54.51000 144.872
54.68000 150.422
54.85000 150.904
55.02000 154.278
55.19000 149.909
55.36000 169.695
55.53000 183.845
55.70000 262.504
55.87000 423.328
56.04000 448.789
56.21000 314.963
56.38000 218.396
56.55000 161.790
56.72000 156.418
56.89000 153.529
57.06000 145.750
57.23000 140.704
57.40000 141.060
57.57000 154.403
57.74000 133.022
57.91000 133.345
58.08000 144.700
58.25000 121.328
58.42000 133.607
58.59000 134.559
58.76000 135.265
58.93000 116.773
59.10000 129.299
59.27000 124.702
59.44000 127.575
59.61000 129.991
59.78000 124.450
59.95000 128.120
60.12000 135.337
60.29000 122.885
60.46000 137.891
60.63000 129.836
60.80000 135.353
60.97000 130.831
61.14000 129.628
61.31000 128.450
61.48000 147.465
61.65000 255.248
61.82000 186.673
61.99000 144.339
62.16000 142.831
62.33000 135.658
62.50000 147.985
62.67000 143.616
62.84000 140.992
63.01000 149.012
63.18000 142.966
63.35000 142.852
63.52000 142.225
63.69000 142.880
63.86000 163.021
64.03000 158.643
64.20000 156.427
64.37000 161.265
64.54000 153.735
64.71000 161.950
64.88000 182.101
65.05000 185.205
65.22000 234.694
65.39000 241.440
65.56000 287.438
65.73000 591.208
65.90000 1049.267
66.07000 372.901
66.24000 322.042
66.41000 459.911
66.58000 345.781
66.75000 315.623
66.92000 355.231
67.09000 364.172
67.26000 396.943
67.43000 406.049
67.60000 435.599
67.77000 481.931
67.94000 521.329
68.11000 553.269
68.28000 617.695
68.45000 685.358
68.62000 1003.539
68.79000 1895.164
68.96000 11513.690
69.13000 54086.086
69.30000 31930.916
69.47000 7717.362
69.64000 1264.478
69.81000 834.016
69.98000 670.598
70.00000 652.982

File: BTO_Mapping_Theta2Theta_25-09-2025_001_19_-2-091_19-890.xy
20.00000 549.181
20.17000 572.323
20.34000 560.267
20.51000 547.544
20.68000 560.965
20.85000 535.787
21.02000 545.249
21.19000 530.284
21.36000 522.000
21.53000 551.712
21.70000 540.666
21.87000 580.460
22.04000 612.021
22.21000 615.022
22.38000 584.021
22.55000 552.170
22.72000 509.402
22.89000 517.238
23.06000 527.499
23.23000 483.772
23.40000 501.933
23.57000 495.374
23.74000 497.992
23.91000 480.214
24.08000 488.660
24.25000 486.385
24.42000 473.076
24.59000 481.086
24.76000 494.598
24.93000 451.413
25.10000 467.299
25.27000 461.769
25.44000 453.535
25.61000 442.268
25.78000 448.868
25.95000 448.669
26.12000 447.889
26.29000 451.106
26.46000 445.675
26.63000 438.358
26.80000 442.191
26.97000 428.517
27.14000 436.680
27.31000 437.831
27.48000 416.533
27.65000 443.447
27.82000 440.725
27.99000 456.518
28.16000 432.145
28.33000 410.336
28.50000 417.413
28.67000 414.916
28.84000 411.983
29.01000 390.233
29.18000 403.088
29.35000 403.007
29.52000 401.674
29.69000 394.564
29.86000 400.311
30.03000 413.892
30.20000 414.016
30.37000 412.791
30.54000 401.066
30.71000 397.216
30.88000 425.471
31.05000 505.819
31.22000 899.667
31.39000 1341.514
31.56000 967.536
31.73000 566.435
31.90000 447.428
32.07000 421.564
32.24000 399.521
32.41000 365.606
32.58000 381.492
32.75000 353.241
32.92000 364.557
33.09000 361.244
33.26000 336.623
33.43000 338.219
33.60000 327.440
33.77000 317.073
33.94000 335.444
34.11000 308.860
34.28000 322.245
34.45000 312.470
34.62000 314.596
34.79000 327.542
34.96000 319.081
35.13000 300.246
35.30000 312.293
35.47000 308.628
35.64000 305.813
35.81000 306.293
35.98000 304.887
36.15000 289.439
36.32000 299.471
36.49000 288.715
36.66000 290.842
36.83000 301.812
37.00000 303.644
37.17000 289.157
37.34000 282.545
37.51000 287.224
37.68000 281.751
37.85000 284.760
38.02000 283.420
38.19000 293.105
38.36000 312.308
38.53000 482.086
38.70000 775.768
38.87000 626.581
39.04000 347.892
39.21000 285.894
39.38000 288.892
39.55000 271.646
39.72000 255.125
39.89000 251.287
40.06000 258.279
40.23000 249.128
40.40000 253.280
40.57000 243.371
40.74000 244.480
40.91000 238.665
41.08000 246.373
41.25000 248.113
41.42000 246.721
41.59000 233.553
41.76000 230.221
41.93000 242.157
42.10000 225.899
42.27000 239.347
42.44000 225.502
42.61000 234.552
42.78000 220.886
42.95000 220.194
43.12000 224.034
43.29000 241.174
43.46000 214.107
43.63000 225.570
43.80000 228.628
43.97000 218.202
44.14000 219.521
44.31000 215.786
44.48000 218.193
44.65000 226.689
44.82000 229.907
44.99000 244.379
45.16000 261.354
45.33000 262.043
45.50000 265.509
45.67000 244.582
45.84000 221.170
46.01000 231.508
46.18000 209.923
46.35000 190.865
46.52000 196.672
46.69000 195.424
46.86000 193.779
47.03000 186.163
47.20000 191.980
47.37000 190.264
47.54000 198.645
47.71000 193.167
47.88000 180.095
48.05000 184.862
48.22000 189.909
48.39000 180.258
48.56000 182.275
48.73000 183.276
48.90000 178.509
49.07000 177.542
49.24000 176.104
49.41000 184.875
49.58000 178.151
49.75000 162.274
49.92000 166.394
50.09000 165.265
50.26000 176.254
50.43000 186.721
50.60000 191.923
50.77000 201.458
50.94000 175.548
51.11000 173.570
51.28000 174.833
51.45000 154.904
51.62000 160.130
51.79000 161.368
51.96000 149.708
52.13000 168.476
52.30000 156.397
52.47000 163.414
52.64000 162.095
52.81000 160.684
52.98000 146.367
53.15000 147.308
53.32000 157.573
53.49000 155.864
53.66000 145.486
53.83000 158.060
54.00000 158.594
54.17000 156.380
54.34000 156.793
54.51000 148.363
54.68000 150.859
54.85000 144.804
55.02000 155.029
55.19000 145.716
55.36000 161.111
55.53000 196.226
55.70000 276.249
55.87000 419.363
56.04000 453.609
56.21000 328.272
56.38000 218.615
56.55000 168.012
56.72000 150.436
56.89000 145.863
57.06000 144.537
57.23000 135.227
57.40000 130.653
57.57000 143.153
57.74000 146.707
57.91000 136.496
58.08000 139.518
58.25000 140.733
58.42000 138.514
58.59000 123.283
58.76000 129.902
58.93000 140.124
59.10000 127.303
59.27000 136.905
59.44000 123.057
59.61000 129.235
59.78000 130.214
59.95000 131.350
60.12000 134.126
60.29000 136.220
60.46000 133.816
60.63000 129.557
60.80000 134.900
60.97000 129.559
61.14000 133.814
61.31000 131.070
61.48000 142.167
61.65000 264.589
61.82000 199.985
61.99000 144.120
62.16000 142.896
62.33000 134.745
62.50000 144.746
62.67000 141.617
62.84000 138.760
63.01000 147.548
63.18000 141.891
63.35000 153.020
63.52000 152.913
63.69000 159.705
63.86000 160.625
64.03000 158.916
64.20000 160.636
64.37000 167.778
64.54000 171.730
64.71000 173.911
64.88000 183.187
65.05000 181.881
65.22000 201.493
65.39000 242.291
65.56000 277.796
65.73000 596.215
65.90000 1054.537
66.07000 369.915
66.24000 320.037
66.41000 429.515
66.58000 356.455
66.75000 319.020
66.92000 313.188
67.09000 354.970
67.26000 385.085
67.43000 410.095
67.60000 441.027
67.77000 491.722
67.94000 517.626
68.11000 557.296
68.28000 621.483
68.45000 745.884
68.62000 1016.784
68.79000 1964.272
68.96000 11861.562
69.13000 54426.672
69.30000 31903.834
69.47000 7706.101
69.64000 1218.505
69.81000 812.158
69.98000 690.351
70.00000 684.245

File: BTO_Mapping_Theta2Theta_25-09-2025_001_20_-3-136_29-836.xy
20.00000 551.708
20.17000 569.782
20.34000 535.480
20.51000 547.961
20.68000 539.186
20.85000 547.957
21.02000 542.745
21.19000 523.901
21.36000 548.002
21.53000 527.148
21.70000 531.258
21.87000 581.586
22.04000 614.914
22.21000 609.802
22.38000 594.264
22.55000 546.425
22.72000 520.729
22.89000 527.492
23.06000 492.767
23.23000 511.463
23.40000 516.254
23.57000 498.464
23.74000 495.940
23.91000 476.540
24.08000 500.135
24.25000 495.010
24.42000 495.106
24.59000 486.725
24.76000 489.440
24.93000 469.602
25.10000 478.211
25.27000 465.892
25.44000 470.492
25.61000 463.999
25.78000 454.914
25.95000 458.763
26.12000 454.155
26.29000 453.553
26.46000 431.511
26.63000 445.043
26.80000 435.911
26.97000 426.018
27.14000 446.699
27.31000 433.965
27.48000 421.096
27.65000 412.498
27.82000 409.811
27.99000 415.916
28.16000 417.284
28.33000 419.960
28.50000 410.751
28.67000 405.273
28.84000 413.894
29.01000 419.627
29.18000 376.331
29.35000 406.214
29.52000 396.220
29.69000 395.018
29.86000 393.023
30.03000 390.885
30.20000 395.151
30.37000 392.516
30.54000 414.817
30.71000 372.254
30.88000 425.373
31.05000 494.901
31.22000 826.208
31.39000 1245.571
31.56000 951.721
31.73000 539.753
31.90000 439.593
32.07000 408.341
32.24000 387.438
32.41000 362.206
32.58000 370.804
32.75000 352.055
32.92000 373.032
33.09000 349.726
33.26000 333.100
33.43000 329.551
33.60000 326.663
33.77000 332.417
33.94000 321.045
34.11000 339.715
34.28000 330.326
34.45000 311.706
34.62000 316.615
34.79000 302.240
34.96000 307.068
35.13000 301.483
35.30000 307.197
35.47000 309.556
35.64000 301.882
35.81000 317.848
35.98000 301.547
36.15000 304.815
36.32000 297.830
36.49000 290.746
36.66000 288.874
36.83000 286.048
37.00000 300.965
37.17000 292.184
37.34000 291.477
37.51000 289.606
37.68000 281.126
37.85000 277.798
38.02000 288.243
38.19000 288.776
38.36000 304.966
38.53000 458.956
38.70000 774.132
38.87000 622.826
39.04000 347.773
39.21000 274.252
39.38000 270.459
39.55000 263.858
39.72000 251.157
39.89000 248.635
40.06000 252.076
40.23000 240.135
40.40000 247.175
40.57000 248.701
40.74000 235.531
40.91000 244.989
41.08000 240.792
41.25000 243.071
41.42000 236.899
41.59000 220.361
41.76000 232.966
41.93000 236.637
42.10000 240.528
42.27000 220.735
42.44000 225.036
42.61000 218.619
42.78000 212.030
42.95000 227.007
43.12000 221.048
43.29000 222.998
43.46000 218.686
43.63000 218.338
43.80000 210.320
43.97000 223.380
44.14000 216.298
44.31000 212.543
44.48000 215.385
44.65000 230.206
44.82000 237.173
44.99000 238.581
45.16000 264.468
45.33000 261.493
45.50000 246.022
45.67000 235.044
45.84000 229.709
46.01000 217.991
46.18000 202.243
46.35000 205.271
46.52000 199.690
46.69000 175.446
46.86000 201.262
47.03000 200.145
47.20000 194.339
47.37000 196.896
47.54000 186.386
47.71000 186.098
47.88000 183.217
48.05000 171.864
48.22000 184.902
48.39000 183.414
48.56000 177.450
48.73000 184.756
48.90000 179.146
49.07000 179.505
49.24000 162.449
49.41000 181.818
49.58000 172.169
49.75000 158.658
49.92000 175.464
50.09000 179.072
50.26000 172.930
50.43000 187.039
50.60000 189.138
50.77000 191.168
50.94000 187.653
51.11000 183.136
51.28000 153.111
51.45000 154.400
51.62000 163.196
51.79000 156.513
51.96000 160.653
52.13000 161.412
52.30000 166.147
52.47000 161.973
52.64000 154.289
52.81000 148.000
52.98000 160.476
53.15000 150.852
53.32000 170.413
53.49000 156.933
53.66000 149.706
53.83000 154.721
54.00000 146.327
54.17000 154.096
54.34000 152.594
54.51000 150.648
54.68000 140.308
54.85000 158.680
55.02000 154.891
55.19000 146.972
55.36000 169.214
55.53000 178.147
55.70000 240.201
55.87000 405.018
56.04000 441.019
56.21000 302.978
56.38000 216.721
56.55000 167.854
56.72000 153.427
56.89000 141.450
57.06000 139.903
57.23000 135.537
57.40000 143.349
57.57000 134.782
57.74000 130.977
57.91000 144.611
58.08000 139.370
58.25000 139.482
58.42000 133.578
58.59000 133.887
58.76000 139.352
58.93000 146.429
59.10000 124.068
59.27000 128.982
59.44000 136.696
59.61000 138.858
59.78000 139.685
59.95000 144.500
60.12000 121.510
60.29000 121.690
60.46000 137.002
60.63000 142.713
60.80000 136.881
60.97000 130.388
61.14000 136.709
61.31000 130.025
61.48000 132.809
61.65000 258.449
61.82000 197.558
61.99000 144.032
62.16000 148.360
62.33000 145.077
62.50000 139.387
62.67000 136.729
62.84000 152.112
63.01000 140.203
63.18000 142.197
63.35000 151.938
63.52000 144.551
63.69000 156.784
63.86000 156.148
64.03000 163.721
64.20000 162.297
64.37000 153.430
64.54000 170.995
64.71000 174.598
64.88000 175.133
65.05000 172.684
65.22000 214.741
65.39000 249.812
65.56000 286.214
65.73000 583.470
65.90000 1042.922
66.07000 367.346
66.24000 329.029
66.41000 446.164
66.58000 328.568
66.75000 319.624
66.92000 331.747
67.09000 348.129
67.26000 392.294
67.43000 399.587
67.60000 438.376
67.77000 481.837
67.94000 518.982
68.11000 544.746
68.28000 609.505
68.45000 723.679
68.62000 1048.567
68.79000 1939.426
68.96000 12324.547
69.13000 54181.586
69.30000 31779.211
69.47000 7549.177
69.64000 1282.361
69.81000 833.352
69.98000 679.756
70.00000 656.474

File: BTO_Mapping_Theta2Theta_25-09-2025_001_22_-5-000_8-660.xy
20.00000 543.000
20.17000 563.147
20.34000 534.090
20.51000 563.172
20.68000 546.383
20.85000 546.141
21.02000 545.233
21.19000 541.182
21.36000 562.919
21.53000 544.860
21.70000 533.516
21.87000 594.053
22.04000 622.488
22.21000 616.922
22.38000 601.338
22.55000 564.870
22.72000 526.557
22.89000 506.981
23.06000 526.038
23.23000 513.155
23.40000 489.697
23.57000 496.209
23.74000 492.137
23.91000 484.168
24.08000 501.976
24.25000 493.396
24.42000 462.248
24.59000 499.924
24.76000 484.763
24.93000 478.111
25.10000 474.390
25.27000 474.023
25.44000 474.044
25.61000 473.294
25.78000 462.283
25.95000 456.247
26.12000 457.757
26.29000 455.899
26.46000 463.738
26.63000 433.798
26.80000 437.754
26.97000 434.985
27.14000 419.753
27.31000 414.661
27.48000 438.108
27.65000 420.519
27.82000 410.116
27.99000 412.634
28.16000 420.178
28.33000 394.375
28.50000 403.346
28.67000 407.450
28.84000 412.729
29.01000 411.672
29.18000 407.445
29.35000 403.541
29.52000 385.719
29.69000 385.646
29.86000 391.822
30.03000 409.633
30.20000 416.663
30.37000 412.999
30.54000 392.503
30.71000 421.924
30.88000 421.544
31.05000 557.564
31.22000 1076.121
31.39000 1606.625
31.56000 1140.479
31.73000 571.792
31.90000 440.542
32.07000 405.208
32.24000 389.817
32.41000 370.982
32.58000 369.819
32.75000 371.525
32.92000 368.463
33.09000 345.555
33.26000 337.932
33.43000 314.569
33.60000 341.341
33.77000 334.210
33.94000 326.075
34.11000 317.832
34.28000 320.341
34.45000 331.713
34.62000 320.543
34.79000 317.298
34.96000 320.738
35.13000 319.726
35.30000 308.546
35.47000 297.853
35.64000 307.595
35.81000 299.152
35.98000 306.081
36.15000 290.666
36.32000 295.702
36.49000 298.788
36.66000 299.604
36.83000 300.411
37.00000 291.500
37.17000 284.107
37.34000 283.517
37.51000 281.975
37.68000 277.077
37.85000 287.104
38.02000 274.603
38.19000 301.067
38.36000 332.535
38.53000 492.710
38.70000 798.361
38.87000 640.139
39.04000 338.473
39.21000 268.706
39.38000 268.535
39.55000 264.224
39.72000 260.396
39.89000 273.612
40.06000 254.005
40.23000 235.827
40.40000 247.583
40.57000 249.753
40.74000 252.708
40.91000 243.445
41.08000 241.415
41.25000 227.046
41.42000 236.178
41.59000 233.298
41.76000 246.786
41.93000 243.863
42.10000 238.300
42.27000 234.936
42.44000 233.068
42.61000 223.771
42.78000 216.598
42.95000 236.085
43.12000 228.278
43.29000 230.083
43.46000 234.217
43.63000 221.245
43.80000 222.286
43.97000 227.850
44.14000 232.789
44.31000 220.765
44.48000 213.656
44.65000 227.074
44.82000 254.085
44.99000 268.916
45.16000 288.510
45.33000 286.518
45.50000 257.458
45.67000 243.066
45.84000 229.918
46.01000 217.598
46.18000 210.588
46.35000 191.691
46.52000 196.580
46.69000 197.510
46.86000 197.221
47.03000 187.845
47.20000 186.944
47.37000 191.110
47.54000 177.217
47.71000 165.874
47.88000 185.298
48.05000 176.115
48.22000 162.900
48.39000 185.572
48.56000 179.003
48.73000 179.300
48.90000 176.721
49.07000 176.980
49.24000 176.696
49.41000 162.132
49.58000 169.802
49.75000 175.363
49.92000 172.360
50.09000 186.035
50.26000 174.774
50.43000 182.665
50.60000 204.552
50.77000 202.093
50.94000 177.251
51.11000 187.289
51.28000 168.072
51.45000 168.101
51.62000 162.446
51.79000 155.283
51.96000 155.418
52.13000 164.306
52.30000 147.014
52.47000 166.210
52.64000 151.417
52.81000 148.316
52.98000 168.423
53.15000 154.379
53.32000 152.291
53.49000 151.487
53.66000 159.126
53.83000 162.763
54.00000 149.128
54.17000 139.262
54.34000 148.743
54.51000 145.204
54.68000 148.543
54.85000 148.977
55.02000 160.622
55.19000 150.650
55.36000 168.848
55.53000 196.406
55.70000 308.601
55.87000 431.662
56.04000 449.477
56.21000 319.876
56.38000 219.029
56.55000 163.265
56.72000 162.935
56.89000 141.909
57.06000 152.210
57.23000 142.116
57.40000 135.514
57.57000 147.178
57.74000 134.811
57.91000 141.437
58.08000 133.343
58.25000 129.819
58.42000 140.123
58.59000 136.232
58.76000 129.320
58.93000 130.247
59.10000 122.598
59.27000 121.014
59.44000 135.482
59.61000 132.789
59.78000 139.590
59.95000 134.850
60.12000 139.935
60.29000 126.735
60.46000 137.609
60.63000 134.666
60.80000 132.171
60.97000 138.046
61.14000 135.347
61.31000 134.185
61.48000 151.098
61.65000 268.320
61.82000 184.065
61.99000 139.652
62.16000 135.272
62.33000 145.084
62.50000 149.876
62.67000 151.800
62.84000 138.811
63.01000 146.142
63.18000 137.952
63.35000 163.269
63.52000 145.625
63.69000 162.133
63.86000 167.252
64.03000 155.626
64.20000 157.306
64.37000 158.433
64.54000 169.827
64.71000 172.184
64.88000 181.701
65.05000 189.016
65.22000 218.988
65.39000 240.004
65.56000 298.561
65.73000 639.723
65.90000 1094.760
66.07000 387.219
66.24000 319.762
66.41000 460.108
66.58000 358.759
66.75000 322.267
66.92000 333.818
67.09000 361.504
67.26000 387.196
67.43000 414.636
67.60000 446.564
67.77000 467.043
67.94000 501.702
68.11000 562.441
68.28000 632.331
68.45000 708.382
68.62000 1056.359
68.79000 1906.023
68.96000 12632.811
69.13000 55808.484
69.30000 32676.025
69.47000 7624.827
69.64000 1243.848
69.81000 841.568
69.98000 642.551
70.00000 650.780