Folder: Master-Thesis/XRD/25-09-2025/XY Data

File: BTO_Mapping_Theta2Theta_25-09-2025_001_01_0-000_0-000.xy
20.00000 557.566
20.17000 574.730
20.34000 554.377
20.51000 557.343
20.68000 550.392
20.85000 540.512
21.02000 529.553
21.19000 546.553
21.36000 550.831
21.53000 544.003
21.70000 550.478
21.87000 572.998
22.04000 617.563
22.21000 619.764
22.38000 582.048
22.55000 545.277
22.72000 502.754
22.89000 495.717
23.06000 500.589
23.23000 494.158
23.40000 511.610
23.57000 514.232
23.74000 480.348
23.91000 495.619
24.08000 487.772
24.25000 475.956
24.42000 478.567
24.59000 477.627
24.76000 469.919
24.93000 461.834
25.10000 471.789
25.27000 471.131
25.44000 471.936
25.61000 477.431
25.78000 442.860
25.95000 453.257
26.12000 449.864
26.29000 429.192
26.46000 450.164
26.63000 439.696
26.80000 444.671
26.97000 436.497
27.14000 432.558
27.31000 421.716
27.48000 426.363
27.65000 418.611
27.82000 413.628
27.99000 425.686
28.16000 425.687
28.33000 425.339
28.50000 413.062
28.67000 403.277
28.84000 417.142
29.01000 403.307
29.18000 398.409
29.35000 413.813
29.52000 392.620
29.69000 399.267
29.86000 389.659
30.03000 425.525
30.20000 408.310
30.37000 403.885
30.54000 403.326
30.71000 411.336
30.88000 434.634
31.05000 523.497
31.22000 1029.774
31.39000 1567.296
31.56000 1068.292
31.73000 582.689
31.90000 424.036
32.07000 403.436
32.24000 369.995
32.41000 373.718
32.58000 362.180
32.75000 349.505
32.92000 360.010
33.09000 343.673
33.26000 344.254
33.43000 337.558
33.60000 324.579
33.77000 316.636
33.94000 322.112
34.11000 321.584
34.28000 311.888
34.45000 334.883
34.62000 310.869
34.79000 313.430
34.96000 321.723
35.13000 320.452
35.30000 303.737
35.47000 320.693
35.64000 302.684
35.81000 306.084
35.98000 302.673
36.15000 287.065
36.32000 284.404
36.49000 295.095
36.66000 288.768
36.83000 278.185
37.00000 294.978
37.17000 292.741
37.34000 290.615
37.51000 287.559
37.68000 292.663
37.85000 286.653
38.02000 289.452
38.19000 301.968
38.36000 328.563
38.53000 519.443
38.70000 772.392
38.87000 629.332
39.04000 358.806
39.21000 273.364
39.38000 265.553
39.55000 264.800
39.72000 253.461
39.89000 257.776
40.06000 256.783
40.23000 257.186
40.40000 256.943
40.57000 259.203
40.74000 245.982
40.91000 239.951
41.08000 236.659
41.25000 237.107
41.42000 245.753
41.59000 234.098
41.76000 241.475
41.93000 246.282
42.10000 232.462
42.27000 230.956
42.44000 234.564
42.61000 235.744
42.78000 226.652
42.95000 219.717
43.12000 229.058
43.29000 220.282
43.46000 218.763
43.63000 221.275
43.80000 213.907
43.97000 225.760
44.14000 222.643
44.31000 232.539
44.48000 224.300
44.65000 249.144
44.82000 235.942
44.99000 255.919
45.16000 291.615
45.33000 267.184
45.50000 262.721
45.67000 257.018
45.84000 233.456
46.01000 219.650
46.18000 207.070
46.35000 190.019
46.52000 197.333
46.69000 199.896
46.86000 194.391
47.03000 196.614
47.20000 191.422
47.37000 191.859
47.54000 176.330
47.71000 175.730
47.88000 183.592
48.05000 187.307
48.22000 187.843
48.39000 186.264
48.56000 172.064
48.73000 188.324
48.90000 177.652
49.07000 172.948
49.24000 172.970
49.41000 183.918
49.58000 171.508
49.75000 173.882
49.92000 176.549
50.09000 176.019
50.26000 175.474
50.43000 186.360
50.60000 193.192
50.77000 199.338
50.94000 197.200
51.11000 166.232
51.28000 168.542
51.45000 175.185
51.62000 160.568
51.79000 162.606
51.96000 158.904
52.13000 170.621
52.30000 155.409
52.47000 149.771
52.64000 172.024
52.81000 153.681
52.98000 152.018
53.15000 151.311
53.32000 156.086
53.49000 172.751
53.66000 147.458
53.83000 156.134
54.00000 155.383
54.17000 142.462
54.34000 153.700
54.51000 170.435
54.68000 144.539
54.85000 150.826
55.02000 149.795
55.19000 147.651
55.36000 171.975
55.53000 193.754
55.70000 289.811
55.87000 443.160
56.04000 448.957
56.21000 324.841
56.38000 222.557
56.55000 165.405
56.72000 156.732
56.89000 148.228
57.06000 137.762
57.23000 148.171
57.40000 135.517
57.57000 132.386
57.74000 152.284
57.91000 143.529
58.08000 136.595
58.25000 131.965
58.42000 143.522
58.59000 135.830
58.76000 127.667
58.93000 137.850
59.10000 125.565
59.27000 146.928
59.44000 134.104
59.61000 128.658
59.78000 139.136
59.95000 137.768
60.12000 131.386
60.29000 127.201
60.46000 132.223
60.63000 129.572
60.80000 119.882
60.97000 132.935
61.14000 137.654
61.31000 136.509
61.48000 136.945
61.65000 249.690
61.82000 206.799
61.99000 132.150
62.16000 143.269
62.33000 145.071
62.50000 138.367
62.67000 137.922
62.84000 136.717
63.01000 140.201
63.18000 154.060
63.35000 143.770
63.52000 141.945
63.69000 146.644
63.86000 155.542
64.03000 153.255
64.20000 164.962
64.37000 160.955
64.54000 168.952
64.71000 172.867
64.88000 170.404
65.05000 186.973
65.22000 206.104
65.39000 249.019
65.56000 284.452
65.73000 602.068
65.90000 1055.632
66.07000 375.082
66.24000 314.091
66.41000 449.187
66.58000 337.498
66.75000 319.510
66.92000 341.222
67.09000 346.384
67.26000 371.692
67.43000 406.005
67.60000 434.070
67.77000 478.024
67.94000 515.226
68.11000 537.110
68.28000 610.993
68.45000 734.011
68.62000 1039.605
68.79000 1940.481
68.96000 12380.130
69.13000 55535.309
69.30000 32624.297
69.47000 7691.242
69.64000 1300.287
69.81000 799.213
69.98000 667.541
70.00000 660.988

File: BTO_Mapping_Theta2Theta_25-09-2025_001_06_9-135_4-067.xy
20.00000 543.721
20.17000 546.015
20.34000 560.405
20.51000 542.896
20.68000 547.701
20.85000 540.860
21.02000 533.626
21.19000 543.117
21.36000 568.821
21.53000 537.962
21.70000 563.092
21.87000 565.252
22.04000 610.068
22.21000 628.461
22.38000 591.557
22.55000 536.973
22.72000 528.700
22.89000 469.842
23.06000 495.118
23.23000 498.250
23.40000 519.907
23.57000 492.288
23.74000 478.595
23.91000 477.947
24.08000 500.318
24.25000 487.016
24.42000 465.049
24.59000 476.091
24.76000 467.626
24.93000 451.104
25.10000 467.774
25.27000 469.356
25.44000 458.650
25.61000 461.410
25.78000 456.420
25.95000 428.464
26.12000 456.303
26.29000 430.306
26.46000 483.254
26.63000 424.593
26.80000 442.933
26.97000 436.798
27.14000 441.514
27.31000 432.922
27.48000 428.339
27.65000 435.503
27.82000 412.804
27.99000 408.060
28.16000 409.915
28.33000 409.631
28.50000 416.666
28.67000 416.968
28.84000 422.456
29.01000 417.494
29.18000 385.538
29.35000 392.629
29.52000 401.155
29.69000 412.690
29.86000 398.226
30.03000 408.155
30.20000 395.711
30.37000 387.444
30.54000 393.458
30.71000 429.862
30.88000 415.754
31.05000 496.805
31.22000 861.924
31.39000 1283.390
31.56000 969.438
31.73000 549.114
31.90000 454.699
32.07000 418.790
32.24000 378.714
32.41000 359.213
32.58000 358.920
32.75000 355.289
32.92000 360.495
33.09000 347.056
33.26000 345.307
33.43000 346.356
33.60000 332.247
33.77000 344.203
33.94000 340.236
34.11000 327.293
34.28000 323.175
34.45000 316.534
34.62000 317.376
34.79000 314.314
34.96000 312.638
35.13000 312.685
35.30000 303.685
35.47000 309.857
35.64000 293.603
35.81000 312.125
35.98000 296.330
36.15000 286.223
36.32000 299.222
36.49000 282.771
36.66000 278.717
36.83000 285.834
37.00000 298.517
37.17000 283.305
37.34000 292.202
37.51000 297.103
37.68000 281.192
37.85000 270.002
38.02000 275.824
38.19000 304.814
38.36000 309.443
38.53000 457.223
38.70000 797.114
38.87000 671.334
39.04000 354.553
39.21000 276.385
39.38000 264.247
39.55000 266.145
39.72000 258.953
39.89000 262.322
40.06000 260.143
40.23000 242.524
40.40000 258.263
40.57000 254.454
40.74000 241.018
40.91000 250.712
41.08000 243.921
41.25000 235.594
41.42000 234.682
41.59000 221.803
41.76000 236.769
41.93000 247.247
42.10000 236.299
42.27000 233.233
42.44000 223.881
42.61000 229.707
42.78000 226.693
42.95000 221.700
43.12000 224.821
43.29000 225.713
43.46000 225.683
43.63000 224.434
43.80000 215.554
43.97000 217.963
44.14000 204.971
44.31000 215.972
44.48000 203.976
44.65000 222.447
44.82000 214.206
44.99000 250.621
45.16000 256.033
45.33000 253.205
45.50000 255.249
45.67000 244.556
45.84000 231.607
46.01000 233.530
46.18000 206.234
46.35000 199.866
46.52000 198.695
46.69000 201.170
46.86000 203.441
47.03000 193.194
47.20000 185.293
47.37000 180.828
47.54000 193.562
47.71000 176.344
47.88000 192.013
48.05000 195.549
48.22000 171.121
48.39000 175.291
48.56000 186.641
48.73000 185.108
48.90000 179.646
49.07000 166.442
49.24000 179.872
49.41000 175.370
49.58000 177.790
49.75000 164.842
49.92000 168.654
50.09000 171.589
50.26000 177.444
50.43000 179.083
50.60000 186.372
50.77000 188.752
50.94000 181.717
51.11000 172.155
51.28000 173.096
51.45000 162.648
51.62000 157.329
51.79000 163.706
51.96000 168.866
52.13000 161.632
52.30000 155.256
52.47000 152.976
52.64000 162.286
52.81000 149.727
52.98000 159.103
53.15000 149.318
53.32000 158.859
53.49000 150.839
53.66000 151.245
53.83000 149.912
54.00000 145.136
54.17000 142.229
54.34000 157.391
54.51000 149.246
54.68000 147.627
54.85000 141.708
55.02000 151.936
55.19000 148.862
55.36000 162.844
55.53000 171.466
55.70000 247.892
55.87000 382.485
56.04000 445.688
56.21000 326.889
56.38000 218.667
56.55000 162.141
56.72000 157.297
56.89000 150.811
57.06000 144.395
57.23000 140.806
57.40000 135.728
57.57000 146.969
57.74000 145.061
57.91000 140.003
58.08000 138.866
58.25000 134.722
58.42000 145.181
58.59000 134.068
58.76000 139.279
58.93000 141.586
59.10000 136.641
59.27000 135.669
59.44000 129.952
59.61000 134.869
59.78000 131.780
59.95000 123.347
60.12000 128.701
60.29000 123.616
60.46000 121.397
60.63000 143.284
60.80000 132.444
60.97000 140.122
61.14000 131.677
61.31000 142.630
61.48000 140.565
61.65000 242.050
61.82000 193.379
61.99000 137.646
62.16000 141.466
62.33000 138.985
62.50000 147.092
62.67000 135.789
62.84000 144.168
63.01000 135.730
63.18000 140.668
63.35000 146.714
63.52000 148.332
63.69000 159.079
63.86000 157.258
64.03000 168.252
64.20000 164.936
64.37000 161.663
64.54000 176.350
64.71000 176.503
64.88000 170.508
65.05000 187.108
65.22000 203.168
65.39000 231.189
65.56000 272.319
65.73000 555.785
65.90000 1051.549
66.07000 385.610
66.24000 318.636
66.41000 429.184
66.58000 340.849
66.75000 311.740
66.92000 339.363
67.09000 364.905
67.26000 371.931
67.43000 420.722
67.60000 434.739
67.77000 477.404
67.94000 502.677
68.11000 571.699
68.28000 591.339
68.45000 727.336
68.62000 1012.904
68.79000 1851.587
68.96000 10769.791
69.13000 53661.363
69.30000 32044.881
69.47000 7999.253
69.64000 1277.559
69.81000 831.043
69.98000 681.998
70.00000 651.280

File: BTO_Mapping_Theta2Theta_25-09-2025_001_08_27-406_12-202.xy
20.00000 559.193
20.17000 546.560
20.34000 569.078
20.51000 558.842
20.68000 542.940
20.85000 567.406
21.02000 536.018
21.19000 544.614
21.36000 540.882
21.53000 520.636
21.70000 562.787
21.87000 577.782
22.04000 591.752
22.21000 613.145
22.38000 567.680
22.55000 538.315
22.72000 502.736
22.89000 494.630
23.06000 506.598
23.23000 515.578
23.40000 510.951
23.57000 492.587
23.74000 497.050
23.91000 508.423
24.08000 499.749
24.25000 482.719
24.42000 491.381
24.59000 495.391
24.76000 471.111
24.93000 488.659
25.10000 464.676
25.27000 469.572
25.44000 476.058
25.61000 463.616
25.78000 456.107
25.95000 428.907
26.12000 431.471
26.29000 461.094
26.46000 453.523
26.63000 437.166
26.80000 458.982
26.97000 435.369
27.14000 416.771
27.31000 418.306
27.48000 451.199
27.65000 423.429
27.82000 426.764
27.99000 418.468
28.16000 427.171
28.33000 411.625
28.50000 419.066
28.67000 418.855
28.84000 400.971
29.01000 404.677
29.18000 411.871
29.35000 420.808
29.52000 399.363
29.69000 393.053
29.86000 424.369
30.03000 416.661
30.20000 421.227
30.37000 392.412
30.54000 418.604
30.71000 411.587
30.88000 447.464
31.05000 527.537
31.22000 862.796
31.39000 1303.305
31.56000 1023.061
31.73000 618.810
31.90000 457.335
32.07000 422.821
32.24000 387.064
32.41000 380.349
32.58000 400.383
32.75000 349.444
32.92000 386.850
33.09000 342.666
33.26000 336.432
33.43000 343.014
33.60000 348.328
33.77000 341.999
33.94000 312.865
34.11000 328.294
34.28000 319.837
34.45000 317.649
34.62000 302.141
34.79000 322.025
34.96000 314.325
35.13000 314.386
35.30000 310.738
35.47000 295.734
35.64000 304.595
35.81000 296.519
35.98000 298.948
36.15000 303.674
36.32000 302.558
36.49000 295.282
36.66000 307.735
36.83000 279.526
37.00000 293.641
37.17000 309.341
37.34000 299.718
37.51000 290.875
37.68000 289.071
37.85000 274.460
38.02000 286.319
38.19000 285.499
38.36000 324.556
38.53000 439.938
38.70000 659.500
38.87000 497.798
39.04000 314.580
39.21000 284.423
39.38000 278.387
39.55000 262.735
39.72000 263.135
39.89000 252.618
40.06000 247.637
40.23000 258.694
40.40000 253.893
40.57000 254.273
40.74000 248.464
40.91000 241.720
41.08000 241.326
41.25000 242.595
41.42000 235.765
41.59000 235.205
41.76000 243.982
41.93000 228.147
42.10000 225.146
42.27000 239.833
42.44000 235.701
42.61000 234.958
42.78000 220.943
42.95000 228.436
43.12000 229.540
43.29000 217.890
43.46000 225.723
43.63000 225.693
43.80000 215.360
43.97000 220.732
44.14000 219.993
44.31000 214.312
44.48000 223.379
44.65000 215.391
44.82000 242.454
44.99000 232.181
45.16000 247.203
45.33000 250.592
45.50000 260.333
45.67000 236.260
45.84000 212.830
46.01000 224.804
46.18000 197.681
46.35000 197.165
46.52000 198.953
46.69000 204.239
46.86000 196.215
47.03000 195.138
47.20000 188.153
47.37000 188.374
47.54000 186.445
47.71000 183.498
47.88000 185.651
48.05000 188.259
48.22000 190.957
48.39000 177.699
48.56000 182.520
48.73000 178.379
48.90000 168.762
49.07000 178.044
49.24000 177.901
49.41000 170.195
49.58000 180.165
49.75000 169.930
49.92000 179.192
50.09000 174.688
50.26000 167.243
50.43000 176.322
50.60000 187.064
50.77000 185.044
50.94000 160.339
51.11000 176.363
51.28000 167.869
51.45000 157.062
51.62000 162.570
51.79000 176.337
51.96000 172.084
52.13000 168.388
52.30000 159.766
52.47000 165.338
52.64000 155.365
52.81000 157.389
52.98000 155.305
53.15000 160.265
53.32000 158.057
53.49000 153.569
53.66000 157.055
53.83000 148.660
54.00000 153.057
54.17000 151.687
54.34000 156.252
54.51000 153.481
54.68000 153.268
54.85000 152.059
55.02000 144.556
55.19000 166.289
55.36000 168.929
55.53000 192.720
55.70000 232.797
55.87000 301.553
56.04000 304.637
56.21000 225.698
56.38000 195.644
56.55000 162.451
56.72000 150.461
56.89000 148.357
57.06000 145.267
57.23000 146.351
57.40000 135.342
57.57000 143.742
57.74000 142.090
57.91000 138.662
58.08000 137.191
58.25000 136.517
58.42000 144.229
58.59000 136.187
58.76000 137.313
58.93000 136.654
59.10000 135.176
59.27000 131.949
59.44000 132.411
59.61000 134.125
59.78000 129.851
59.95000 139.788
60.12000 134.256
60.29000 130.687
60.46000 126.106
60.63000 134.953
60.80000 132.718
60.97000 133.689
61.14000 145.441
61.31000 136.533
61.48000 150.091
61.65000 264.734
61.82000 195.777
61.99000 138.071
62.16000 137.938
62.33000 141.076
62.50000 132.947
62.67000 136.539
62.84000 145.152
63.01000 149.236
63.18000 148.468
63.35000 143.590
63.52000 151.972
63.69000 149.697
63.86000 156.076
64.03000 157.976
64.20000 160.837
64.37000 164.492
64.54000 172.184
64.71000 170.774
64.88000 182.546
65.05000 209.061
65.22000 212.490
65.39000 250.281
65.56000 277.151
65.73000 540.091
65.90000 1024.181
66.07000 386.723
66.24000 323.771
66.41000 453.569
66.58000 342.624
66.75000 321.794
66.92000 319.227
67.09000 357.210
67.26000 382.296
67.43000 421.143
67.60000 448.362
67.77000 466.606
67.94000 512.162
68.11000 575.380
68.28000 623.319
68.45000 722.909
68.62000 980.013
68.79000 1793.932
68.96000 9577.350
69.13000 53490.473
69.30000 32719.359
69.47000 8644.699
69.64000 1251.830
69.81000 830.746
69.98000 683.772
70.00000 671.855

File: BTO_Mapping_Theta2Theta_25-09-2025_001_11_13-383_14-863.xy
20.00000 571.113
20.17000 544.718
20.34000 563.113
20.51000 544.465
20.68000 534.009
20.85000 530.441
21.02000 531.233
21.19000 538.373
21.36000 561.251
21.53000 529.025
21.70000 543.853
21.87000 561.785
22.04000 595.782
22.21000 601.353
22.38000 588.818
22.55000 549.905
22.72000 527.608
22.89000 489.572
23.06000 515.437
23.23000 488.771
23.40000 522.900
23.57000 510.158
23.74000 500.645
23.91000 472.965
24.08000 483.299
24.25000 481.673
24.42000 509.344
24.59000 494.668
24.76000 472.893
24.93000 501.019
25.10000 466.731
25.27000 480.527
25.44000 460.314
25.61000 474.490
25.78000 439.078
25.95000 429.373
26.12000 469.938
26.29000 458.578
26.46000 463.100
26.63000 453.771
26.80000 455.095
26.97000 439.070
27.14000 422.112
27.31000 417.766
27.48000 425.591
27.65000 413.218
27.82000 419.623
27.99000 423.841
28.16000 417.159
28.33000 405.214
28.50000 413.516
28.67000 409.688
28.84000 405.212
29.01000 411.322
29.18000 397.390
29.35000 398.148
29.52000 398.272
29.69000 394.953
29.86000 415.792
30.03000 407.780
30.20000 409.217
30.37000 388.506
30.54000 405.007
30.71000 405.288
30.88000 440.315
31.05000 477.009
31.22000 844.335
31.39000 1287.955
31.56000 1021.471
31.73000 615.266
31.90000 447.072
32.07000 413.212
32.24000 393.036
32.41000 381.976
32.58000 368.824
32.75000 352.005
32.92000 371.224
33.09000 360.272
33.26000 330.215
33.43000 326.255
33.60000 346.975
33.77000 332.572
33.94000 333.891
34.11000 326.628
34.28000 326.899
34.45000 328.866
34.62000 314.047
34.79000 312.476
34.96000 309.574
35.13000 322.171
35.30000 306.431
35.47000 314.719
35.64000 304.554
35.81000 311.079
35.98000 309.291
36.15000 291.937
36.32000 298.138
36.49000 303.046
36.66000 289.554
36.83000 295.996
37.00000 296.273
37.17000 287.561
37.34000 288.381
37.51000 287.199
37.68000 277.310
37.85000 275.646
38.02000 281.709
38.19000 283.587
38.36000 301.756
38.53000 416.488
38.70000 744.061
38.87000 586.421
39.04000 336.676
39.21000 281.243
39.38000 265.259
39.55000 263.572
39.72000 265.587
39.89000 258.221
40.06000 246.664
40.23000 255.733
40.40000 258.049
40.57000 249.815
40.74000 233.341
40.91000 233.085
41.08000 235.660
41.25000 245.648
41.42000 244.652
41.59000 220.542
41.76000 236.964
41.93000 242.160
42.10000 229.393
42.27000 245.059
42.44000 232.705
42.61000 225.899
42.78000 230.660
42.95000 220.385
43.12000 226.148
43.29000 222.090
43.46000 220.781
43.63000 219.612
43.80000 216.299
43.97000 217.300
44.14000 213.776
44.31000 224.599
44.48000 219.227
44.65000 195.734
44.82000 246.870
44.99000 256.652
45.16000 265.985
45.33000 258.951
45.50000 246.399
45.67000 244.177
45.84000 229.820
46.01000 223.148
46.18000 216.459
46.35000 199.681
46.52000 194.183
46.69000 196.337
46.86000 188.278
47.03000 197.800
47.20000 198.362
47.37000 190.297
47.54000 182.177
47.71000 184.688
47.88000 192.331
48.05000 189.451
48.22000 186.620
48.39000 188.922
48.56000 181.765
48.73000 176.532
48.90000 169.945
49.07000 183.202
49.24000 169.834
49.41000 177.766
49.58000 174.493
49.75000 162.053
49.92000 167.982
50.09000 168.006
50.26000 171.027
50.43000 174.672
50.60000 192.613
50.77000 189.643
50.94000 185.010
51.11000 171.267
51.28000 170.260
51.45000 170.577
51.62000 163.462
51.79000 158.753
51.96000 160.740
52.13000 155.192
52.30000 169.289
52.47000 152.196
52.64000 151.961
52.81000 166.737
52.98000 157.391
53.15000 155.496
53.32000 156.725
53.49000 152.452
53.66000 146.752
53.83000 151.405
54.00000 164.964
54.17000 148.610
54.34000 140.639
54.51000 143.401
54.68000 159.637
54.85000 149.697
55.02000 160.072
55.19000 149.401
55.36000 155.276
55.53000 171.089
55.70000 242.794
55.87000 374.866
56.04000 414.716
56.21000 290.306
56.38000 198.173
56.55000 165.761
56.72000 150.562
56.89000 139.950
57.06000 146.140
57.23000 137.676
57.40000 140.921
57.57000 133.642
57.74000 131.382
57.91000 136.809
58.08000 144.602
58.25000 142.317
58.42000 135.313
58.59000 137.525
58.76000 128.063
58.93000 144.537
59.10000 135.677
59.27000 128.953
59.44000 134.043
59.61000 127.619
59.78000 134.828
59.95000 130.294
60.12000 128.849
60.29000 142.836
60.46000 125.851
60.63000 126.678
60.80000 130.870
60.97000 131.248
61.14000 142.960
61.31000 139.051
61.48000 142.405
61.65000 261.858
61.82000 194.714
61.99000 130.720
62.16000 139.257
62.33000 146.725
62.50000 133.918
62.67000 140.782
62.84000 145.797
63.01000 138.597
63.18000 150.873
63.35000 152.121
63.52000 157.381
63.69000 151.565
63.86000 154.425
64.03000 143.007
64.20000 158.176
64.37000 160.815
64.54000 161.964
64.71000 177.502
64.88000 182.079
65.05000 182.782
65.22000 200.642
65.39000 244.227
65.56000 290.790
65.73000 563.393
65.90000 1065.524
66.07000 373.604
66.24000 323.411
66.41000 427.976
66.58000 370.548
66.75000 324.101
66.92000 323.298
67.09000 354.662
67.26000 376.804
67.43000 393.287
67.60000 438.552
67.77000 469.109
67.94000 536.000
68.11000 543.345
68.28000 636.187
68.45000 734.284
68.62000 995.729
68.79000 1855.913
68.96000 10534.244
69.13000 53393.855
69.30000 32060.734
69.47000 8144.825
69.64000 1249.972
69.81000 833.538
69.98000 663.740
70.00000 670.713

File: BTO_Mapping_Theta2Theta_25-09-2025_001_12_20-074_22-294.xy
20.00000 570.295
20.17000 538.085
20.34000 555.814
20.51000 566.006
20.68000 526.592
20.85000 560.845
21.02000 547.482
21.19000 534.258
21.36000 538.131
21.53000 525.657
21.70000 550.001
21.87000 532.487
22.04000 569.027
22.21000 603.781
22.38000 575.875
22.55000 549.749
22.72000 527.929
22.89000 535.574
23.06000 501.585
23.23000 496.063
23.40000 489.244
23.57000 497.528
23.74000 504.697
23.91000 492.650
24.08000 494.834
24.25000 485.863
24.42000 486.353
24.59000 487.185
24.76000 466.483
24.93000 467.314
25.10000 457.538
25.27000 491.076
25.44000 469.071
25.61000 465.847
25.78000 464.939
25.95000 434.894
26.12000 453.913
26.29000 458.778
26.46000 444.340
26.63000 436.042
26.80000 447.977
26.97000 427.225
27.14000 437.007
27.31000 410.676
27.48000 440.841
27.65000 424.304
27.82000 434.952
27.99000 431.099
28.16000 423.642
28.33000 415.342
28.50000 412.515
28.67000 401.428
28.84000 418.867
29.01000 407.194
29.18000 403.463
29.35000 404.965
29.52000 418.235
29.69000 418.180
29.86000 406.809
30.03000 416.635
30.20000 424.347
30.37000 406.646
30.54000 399.954
30.71000 420.835
30.88000 441.497
31.05000 546.296
31.22000 888.277
31.39000 1322.536
31.56000 1032.255
31.73000 601.951
31.90000 453.659
32.07000 420.095
32.24000 399.250
32.41000 376.880
32.58000 367.836
32.75000 373.519
32.92000 377.369
33.09000 348.003
33.26000 340.987
33.43000 330.776
33.60000 344.071
33.77000 327.657
33.94000 329.823
34.11000 341.018
34.28000 325.408
34.45000 316.822
34.62000 312.355
34.79000 322.330
34.96000 328.900
35.13000 303.792
35.30000 299.947
35.47000 312.405
35.64000 299.433
35.81000 293.129
35.98000 301.324
36.15000 296.837
36.32000 289.352
36.49000 298.853
36.66000 297.795
36.83000 293.956
37.00000 287.537
37.17000 303.184
37.34000 276.397
37.51000 287.220
37.68000 290.956
37.85000 281.454
38.02000 270.003
38.19000 278.550
38.36000 305.819
38.53000 433.900
38.70000 667.686
38.87000 520.835
39.04000 318.642
39.21000 276.887
39.38000 277.686
39.55000 265.222
39.72000 256.745
39.89000 271.109
40.06000 243.034
40.23000 259.248
40.40000 249.405
40.57000 265.992
40.74000 249.884
40.91000 234.599
41.08000 239.102
41.25000 246.627
41.42000 246.246
41.59000 228.902
41.76000 242.118
41.93000 228.721
42.10000 232.347
42.27000 237.066
42.44000 228.656
42.61000 231.768
42.78000 229.308
42.95000 226.357
43.12000 225.614
43.29000 230.637
43.46000 214.693
43.63000 225.421
43.80000 227.210
43.97000 227.041
44.14000 214.357
44.31000 216.425
44.48000 221.121
44.65000 210.568
44.82000 244.082
44.99000 233.564
45.16000 246.099
45.33000 253.074
45.50000 247.923
45.67000 236.450
45.84000 221.193
46.01000 208.871
46.18000 198.800
46.35000 192.213
46.52000 198.657
46.69000 203.539
46.86000 200.599
47.03000 194.714
47.20000 198.500
47.37000 189.692
47.54000 183.474
47.71000 174.972
47.88000 191.911
48.05000 173.110
48.22000 180.171
48.39000 179.383
48.56000 182.483
48.73000 171.578
48.90000 174.264
49.07000 172.008
49.24000 187.342
49.41000 166.876
49.58000 172.907
49.75000 171.718
49.92000 174.370
50.09000 172.126
50.26000 170.300
50.43000 169.832
50.60000 183.570
50.77000 188.974
50.94000 177.990
51.11000 174.521
51.28000 168.991
51.45000 168.476
51.62000 160.954
51.79000 161.253
51.96000 155.739
52.13000 165.533
52.30000 157.273
52.47000 174.471
52.64000 157.128
52.81000 155.306
52.98000 154.539
53.15000 147.041
53.32000 160.521
53.49000 156.041
53.66000 154.490
53.83000 154.931
54.00000 163.622
54.17000 133.808
54.34000 152.007
54.51000 146.132
54.68000 152.221
54.85000 138.910
55.02000 152.475
55.19000 157.896
55.36000 167.398
55.53000 197.570
55.70000 242.208
55.87000 323.349
56.04000 323.871
56.21000 237.653
56.38000 199.661
56.55000 180.073
56.72000 149.966
56.89000 153.991
57.06000 147.298
57.23000 133.713
57.40000 144.921
57.57000 135.959
57.74000 141.308
57.91000 136.315
58.08000 130.560
58.25000 137.705
58.42000 135.671
58.59000 145.698
58.76000 151.386
58.93000 143.030
59.10000 127.356
59.27000 139.322
59.44000 140.350
59.61000 140.938
59.78000 132.619
59.95000 134.521
60.12000 138.901
60.29000 129.143
60.46000 121.366
60.63000 125.628
60.80000 133.706
60.97000 132.525
61.14000 139.278
61.31000 142.235
61.48000 145.567
61.65000 265.226
61.82000 205.459
61.99000 136.082
62.16000 133.614
62.33000 137.928
62.50000 134.639
62.67000 144.871
62.84000 153.430
63.01000 142.233
63.18000 142.585
63.35000 149.510
63.52000 160.645
63.69000 141.672
63.86000 149.157
64.03000 154.593
64.20000 160.917
64.37000 164.110
64.54000 173.481
64.71000 170.303
64.88000 186.502
65.05000 179.668
65.22000 202.743
65.39000 221.047
65.56000 289.467
65.73000 556.165
65.90000 1063.347
66.07000 377.125
66.24000 314.577
66.41000 450.985
66.58000 362.826
66.75000 333.643
66.92000 354.047
67.09000 366.895
67.26000 375.793
67.43000 410.646
67.60000 439.910
67.77000 469.042
67.94000 516.459
68.11000 570.801
68.28000 645.007
68.45000 743.245
68.62000 1016.834
68.79000 1835.317
68.96000 10056.806
69.13000 53658.531
69.30000 32455.805
69.47000 8436.067
69.64000 1254.306
69.81000 838.361
69.98000 660.855
70.00000 657.830