Folder: Master-Thesis/XRD/25-09-2025/XY Data (part 6)

File: BTO_Mapping_Theta2Theta_25-09-2025_001_52_9-271_-28-532.xy
20.00000 553.720
20.17000 570.919
20.34000 548.723
20.51000 526.891
20.68000 548.982
20.85000 555.653
21.02000 533.662
21.19000 529.305
21.36000 550.540
21.53000 524.260
21.70000 538.650
21.87000 560.728
22.04000 630.887
22.21000 610.938
22.38000 581.184
22.55000 549.198
22.72000 521.341
22.89000 509.065
23.06000 482.931
23.23000 514.137
23.40000 487.966
23.57000 493.869
23.74000 494.714
23.91000 475.314
24.08000 488.322
24.25000 463.690
24.42000 486.480
24.59000 482.400
24.76000 475.067
24.93000 461.373
25.10000 468.492
25.27000 476.815
25.44000 464.055
25.61000 461.158
25.78000 469.538
25.95000 450.354
26.12000 452.207
26.29000 453.023
26.46000 457.996
26.63000 444.678
26.80000 436.663
26.97000 425.932
27.14000 428.343
27.31000 439.109
27.48000 422.718
27.65000 419.055
27.82000 410.891
27.99000 424.341
28.16000 411.670
28.33000 428.035
28.50000 409.870
28.67000 415.448
28.84000 412.121
29.01000 402.472
29.18000 376.643
29.35000 400.253
29.52000 397.027
29.69000 399.961
29.86000 414.882
30.03000 407.627
30.20000 403.327
30.37000 399.384
30.54000 415.065
30.71000 398.942
30.88000 415.476
31.05000 514.421
31.22000 964.870
31.39000 1468.190
31.56000 1047.761
31.73000 559.673
31.90000 439.343
32.07000 407.703
32.24000 392.306
32.41000 385.266
32.58000 374.261
32.75000 343.223
32.92000 361.994
33.09000 357.471
33.26000 338.422
33.43000 338.920
33.60000 336.074
33.77000 329.159
33.94000 324.312
34.11000 341.896
34.28000 310.923
34.45000 308.352
34.62000 310.317
34.79000 323.236
34.96000 305.844
35.13000 313.622
35.30000 306.100
35.47000 315.141
35.64000 291.495
35.81000 298.578
35.98000 291.223
36.15000 289.385
36.32000 307.451
36.49000 296.295
36.66000 294.123
36.83000 295.177
37.00000 290.756
37.17000 282.739
37.34000 284.613
37.51000 289.515
37.68000 293.978
37.85000 288.556
38.02000 287.570
38.19000 302.693
38.36000 316.526
38.53000 482.337
38.70000 821.461
38.87000 657.171
39.04000 371.451
39.21000 295.229
39.38000 280.725
39.55000 269.976
39.72000 263.789
39.89000 259.124
40.06000 274.803
40.23000 237.910
40.40000 261.256
40.57000 249.247
40.74000 250.643
40.91000 249.469
41.08000 232.518
41.25000 240.925
41.42000 246.037
41.59000 226.057
41.76000 226.773
41.93000 242.231
42.10000 222.658
42.27000 223.640
42.44000 238.093
42.61000 233.875
42.78000 231.545
42.95000 210.539
43.12000 225.611
43.29000 229.551
43.46000 220.881
43.63000 214.642
43.80000 208.069
43.97000 221.592
44.14000 207.334
44.31000 223.019
44.48000 216.776
44.65000 242.281
44.82000 246.673
44.99000 254.199
45.16000 268.206
45.33000 266.076
45.50000 245.358
45.67000 243.021
45.84000 235.035
46.01000 216.494
46.18000 199.011
46.35000 202.342
46.52000 191.680
46.69000 196.797
46.86000 204.203
47.03000 190.967
47.20000 186.043
47.37000 188.354
47.54000 189.076
47.71000 185.878
47.88000 195.885
48.05000 180.812
48.22000 173.381
48.39000 177.841
48.56000 175.815
48.73000 189.427
48.90000 179.487
49.07000 174.467
49.24000 176.781
49.41000 153.952
49.58000 183.582
49.75000 166.138
49.92000 159.884
50.09000 169.919
50.26000 185.391
50.43000 183.247
50.60000 198.023
50.77000 205.706
50.94000 198.450
51.11000 174.254
51.28000 167.670
51.45000 160.211
51.62000 146.411
51.79000 165.742
51.96000 163.103
52.13000 155.083
52.30000 147.363
52.47000 159.187
52.64000 156.138
52.81000 152.872
52.98000 161.607
53.15000 162.675
53.32000 157.248
53.49000 150.620
53.66000 154.790
53.83000 154.908
54.00000 153.621
54.17000 158.026
54.34000 141.605
54.51000 145.069
54.68000 161.176
54.85000 159.484
55.02000 145.303
55.19000 151.435
55.36000 158.288
55.53000 191.259
55.70000 290.341
55.87000 448.364
56.04000 448.158
56.21000 321.899
56.38000 220.250
56.55000 171.803
56.72000 151.304
56.89000 149.366
57.06000 148.162
57.23000 143.713
57.40000 130.870
57.57000 133.867
57.74000 137.382
57.91000 137.227
58.08000 143.172
58.25000 136.735
58.42000 130.235
58.59000 139.658
58.76000 131.967
58.93000 129.291
59.10000 134.607
59.27000 132.333
59.44000 138.158
59.61000 137.692
59.78000 140.313
59.95000 141.130
60.12000 127.824
60.29000 134.014
60.46000 127.943
60.63000 126.549
60.80000 127.299
60.97000 135.237
61.14000 130.071
61.31000 138.730
61.48000 149.144
61.65000 258.249
61.82000 187.598
61.99000 141.087
62.16000 153.439
62.33000 150.678
62.50000 144.932
62.67000 149.492
62.84000 140.464
63.01000 144.428
63.18000 146.650
63.35000 139.433
63.52000 147.142
63.69000 155.801
63.86000 149.139
64.03000 150.674
64.20000 165.325
64.37000 154.854
64.54000 151.069
64.71000 172.517
64.88000 181.087
65.05000 197.734
65.22000 210.130
65.39000 241.029
65.56000 289.894
65.73000 558.329
65.90000 1085.036
66.07000 394.711
66.24000 302.915
66.41000 450.609
66.58000 349.395
66.75000 316.390
66.92000 351.383
67.09000 365.620
67.26000 384.520
67.43000 412.065
67.60000 444.327
67.77000 470.064
67.94000 512.804
68.11000 563.505
68.28000 627.126
68.45000 754.202
68.62000 1008.367
68.79000 1847.354
68.96000 10922.531
69.13000 54526.492
69.30000 32803.984
69.47000 8295.790
69.64000 1261.220
69.81000 803.414
69.98000 682.748
70.00000 652.905

File: BTO_Mapping_Theta2Theta_25-09-2025_001_57_26-765_-29-726.xy
20.00000 546.592
20.17000 577.112
20.34000 538.650
20.51000 540.918
20.68000 559.981
20.85000 567.397
21.02000 536.409
21.19000 550.438
21.36000 543.255
21.53000 545.506
21.70000 528.142
21.87000 547.653
22.04000 594.994
22.21000 614.874
22.38000 579.073
22.55000 541.884
22.72000 515.889
22.89000 522.151
23.06000 501.606
23.23000 506.223
23.40000 503.148
23.57000 490.343
23.74000 512.987
23.91000 485.745
24.08000 490.234
24.25000 474.982
24.42000 493.440
24.59000 463.830
24.76000 466.637
24.93000 452.108
25.10000 461.499
25.27000 476.731
25.44000 467.776
25.61000 463.131
25.78000 466.809
25.95000 472.158
26.12000 469.049
26.29000 448.311
26.46000 455.481
26.63000 460.281
26.80000 444.390
26.97000 445.004
27.14000 431.714
27.31000 445.583
27.48000 435.315
27.65000 419.190
27.82000 424.077
27.99000 407.079
28.16000 403.782
28.33000 412.161
28.50000 424.079
28.67000 415.692
28.84000 392.596
29.01000 406.844
29.18000 410.486
29.35000 412.902
29.52000 409.829
29.69000 397.133
29.86000 417.586
30.03000 412.263
30.20000 412.734
30.37000 419.310
30.54000 419.367
30.71000 402.683
30.88000 437.359
31.05000 509.092
31.22000 845.133
31.39000 1349.211
31.56000 1041.475
31.73000 609.026
31.90000 460.137
32.07000 402.121
32.24000 386.867
32.41000 380.460
32.58000 365.348
32.75000 389.071
32.92000 379.661
33.09000 334.928
33.26000 332.393
33.43000 349.295
33.60000 328.297
33.77000 316.813
33.94000 337.740
34.11000 316.426
34.28000 312.046
34.45000 322.680
34.62000 314.025
34.79000 322.275
34.96000 327.600
35.13000 301.288
35.30000 306.785
35.47000 299.426
35.64000 292.359
35.81000 303.580
35.98000 306.493
36.15000 303.629
36.32000 286.412
36.49000 290.570
36.66000 291.879
36.83000 292.279
37.00000 293.249
37.17000 276.334
37.34000 279.371
37.51000 294.742
37.68000 281.388
37.85000 291.826
38.02000 261.286
38.19000 284.101
38.36000 296.750
38.53000 428.846
38.70000 726.315
38.87000 597.125
39.04000 348.987
39.21000 296.670
39.38000 275.788
39.55000 261.202
39.72000 262.876
39.89000 257.584
40.06000 264.366
40.23000 262.336
40.40000 246.793
40.57000 239.764
40.74000 236.072
40.91000 235.595
41.08000 232.802
41.25000 245.875
41.42000 243.330
41.59000 231.927
41.76000 232.980
41.93000 235.891
42.10000 247.361
42.27000 243.709
42.44000 225.285
42.61000 231.613
42.78000 225.718
42.95000 241.630
43.12000 233.656
43.29000 211.417
43.46000 230.599
43.63000 218.644
43.80000 205.088
43.97000 220.235
44.14000 216.233
44.31000 211.669
44.48000 215.444
44.65000 230.680
44.82000 218.033
44.99000 240.021
45.16000 241.700
45.33000 247.708
45.50000 246.505
45.67000 248.331
45.84000 225.607
46.01000 220.234
46.18000 208.796
46.35000 200.340
46.52000 191.479
46.69000 213.220
46.86000 210.649
47.03000 191.979
47.20000 202.184
47.37000 181.523
47.54000 196.288
47.71000 177.015
47.88000 179.689
48.05000 181.485
48.22000 190.888
48.39000 179.495
48.56000 176.980
48.73000 182.913
48.90000 188.309
49.07000 179.671
49.24000 176.213
49.41000 167.347
49.58000 174.539
49.75000 176.939
49.92000 173.976
50.09000 174.591
50.26000 183.698
50.43000 171.528
50.60000 179.968
50.77000 188.165
50.94000 181.642
51.11000 173.982
51.28000 159.178
51.45000 163.638
51.62000 155.835
51.79000 173.853
51.96000 159.885
52.13000 165.072
52.30000 155.584
52.47000 152.637
52.64000 151.838
52.81000 168.238
52.98000 165.604
53.15000 153.261
53.32000 154.433
53.49000 159.137
53.66000 150.727
53.83000 152.697
54.00000 153.705
54.17000 157.343
54.34000 161.189
54.51000 146.160
54.68000 155.917
54.85000 145.447
55.02000 144.023
55.19000 154.756
55.36000 165.484
55.53000 177.837
55.70000 255.370
55.87000 373.896
56.04000 410.726
56.21000 289.371
56.38000 201.067
56.55000 163.599
56.72000 156.499
56.89000 152.616
57.06000 149.054
57.23000 145.940
57.40000 147.088
57.57000 146.674
57.74000 142.445
57.91000 136.446
58.08000 139.270
58.25000 142.198
58.42000 140.318
58.59000 141.662
58.76000 136.634
58.93000 135.168
59.10000 133.771
59.27000 128.594
59.44000 133.761
59.61000 136.078
59.78000 134.315
59.95000 133.983
60.12000 131.611
60.29000 130.294
60.46000 144.537
60.63000 127.034
60.80000 133.125
60.97000 133.286
61.14000 139.825
61.31000 130.522
61.48000 145.329
61.65000 253.278
61.82000 192.115
61.99000 141.698
62.16000 145.935
62.33000 147.974
62.50000 138.212
62.67000 147.157
62.84000 143.110
63.01000 145.472
63.18000 158.451
63.35000 149.324
63.52000 154.101
63.69000 157.140
63.86000 149.956
64.03000 163.803
64.20000 164.387
64.37000 166.266
64.54000 166.068
64.71000 170.859
64.88000 175.940
65.05000 195.163
65.22000 204.284
65.39000 266.211
65.56000 278.456
65.73000 544.347
65.90000 1054.286
66.07000 372.772
66.24000 313.508
66.41000 451.253
66.58000 349.331
66.75000 331.563
66.92000 345.016
67.09000 366.206
67.26000 365.984
67.43000 408.308
67.60000 447.065
67.77000 466.844
67.94000 515.924
68.11000 561.342
68.28000 614.197
68.45000 717.054
68.62000 987.951
68.79000 1856.325
68.96000 9820.078
69.13000 53452.469
69.30000 32523.670
69.47000 8575.217
69.64000 1236.278
69.81000 832.744
69.98000 681.402
70.00000 650.021

File: BTO_Mapping_Theta2Theta_25-09-2025_001_58_9-135_-4-067.xy
20.00000 576.433
20.17000 558.995
20.34000 562.806
20.51000 537.988
20.68000 534.508
20.85000 529.711
21.02000 545.561
21.19000 547.520
21.36000 557.775
21.53000 533.126
21.70000 550.841
21.87000 559.444
22.04000 579.943
22.21000 612.433
22.38000 580.866
22.55000 565.824
22.72000 529.507
22.89000 502.559
23.06000 502.260
23.23000 511.436
23.40000 500.034
23.57000 500.060
23.74000 490.463
23.91000 486.096
24.08000 488.374
24.25000 483.998
24.42000 506.929
24.59000 472.587
24.76000 477.429
24.93000 468.310
25.10000 467.925
25.27000 466.263
25.44000 456.399
25.61000 458.768
25.78000 455.434
25.95000 446.903
26.12000 431.167
26.29000 482.632
26.46000 433.759
26.63000 432.717
26.80000 441.199
26.97000 427.262
27.14000 428.696
27.31000 437.971
27.48000 433.286
27.65000 439.337
27.82000 445.208
27.99000 404.827
28.16000 415.757
28.33000 414.455
28.50000 426.463
28.67000 426.166
28.84000 417.380
29.01000 413.317
29.18000 399.589
29.35000 400.288
29.52000 391.082
29.69000 409.466
29.86000 395.928
30.03000 411.984
30.20000 408.339
30.37000 414.851
30.54000 405.932
30.71000 416.040
30.88000 420.507
31.05000 509.979
31.22000 887.229
31.39000 1336.064
31.56000 926.290
31.73000 555.950
31.90000 426.512
32.07000 393.431
32.24000 387.975
32.41000 385.610
32.58000 366.602
32.75000 352.976
32.92000 373.395
33.09000 345.284
33.26000 346.560
33.43000 328.234
33.60000 349.603
33.77000 331.298
33.94000 319.873
34.11000 335.703
34.28000 318.909
34.45000 320.370
34.62000 320.482
34.79000 313.724
34.96000 307.175
35.13000 297.812
35.30000 306.038
35.47000 311.739
35.64000 286.632
35.81000 322.285
35.98000 292.088
36.15000 276.069
36.32000 296.140
36.49000 290.940
36.66000 297.726
36.83000 305.307
37.00000 302.241
37.17000 300.210
37.34000 283.598
37.51000 289.697
37.68000 284.696
37.85000 287.378
38.02000 273.283
38.19000 292.346
38.36000 305.503
38.53000 492.368
38.70000 809.955
38.87000 645.669
39.04000 361.300
39.21000 272.454
39.38000 274.378
39.55000 268.374
39.72000 256.428
39.89000 259.050
40.06000 253.072
40.23000 267.995
40.40000 247.034
40.57000 238.305
40.74000 242.914
40.91000 249.699
41.08000 236.361
41.25000 246.785
41.42000 239.002
41.59000 225.635
41.76000 236.516
41.93000 235.293
42.10000 234.853
42.27000 228.237
42.44000 227.895
42.61000 239.166
42.78000 218.515
42.95000 224.085
43.12000 226.710
43.29000 224.202
43.46000 202.076
43.63000 219.620
43.80000 218.808
43.97000 225.654
44.14000 219.511
44.31000 222.436
44.48000 222.212
44.65000 220.318
44.82000 229.233
44.99000 239.370
45.16000 262.154
45.33000 258.195
45.50000 250.417
45.67000 237.843
45.84000 229.130
46.01000 208.055
46.18000 213.570
46.35000 194.470
46.52000 198.309
46.69000 201.299
46.86000 192.472
47.03000 202.195
47.20000 200.715
47.37000 180.051
47.54000 193.788
47.71000 187.456
47.88000 187.068
48.05000 193.111
48.22000 193.632
48.39000 174.367
48.56000 176.056
48.73000 171.764
48.90000 180.503
49.07000 185.574
49.24000 183.688
49.41000 176.285
49.58000 175.330
49.75000 172.139
49.92000 176.074
50.09000 184.472
50.26000 179.074
50.43000 188.356
50.60000 200.089
50.77000 201.165
50.94000 180.709
51.11000 188.145
51.28000 186.843
51.45000 158.050
51.62000 166.440
51.79000 170.869
51.96000 156.458
52.13000 159.229
52.30000 156.432
52.47000 155.078
52.64000 158.149
52.81000 167.880
52.98000 143.982
53.15000 159.135
53.32000 149.175
53.49000 152.939
53.66000 143.998
53.83000 160.348
54.00000 144.704
54.17000 141.325
54.34000 139.971
54.51000 155.823
54.68000 143.531
54.85000 154.785
55.02000 153.162
55.19000 157.275
55.36000 157.671
55.53000 184.548
55.70000 273.059
55.87000 414.058
56.04000 457.727
56.21000 332.000
56.38000 229.999
56.55000 165.339
56.72000 155.792
56.89000 160.906
57.06000 143.403
57.23000 142.455
57.40000 124.265
57.57000 134.528
57.74000 150.781
57.91000 145.110
58.08000 135.956
58.25000 132.381
58.42000 141.564
58.59000 142.019
58.76000 130.089
58.93000 139.343
59.10000 128.903
59.27000 137.578
59.44000 139.740
59.61000 129.748
59.78000 139.205
59.95000 130.108
60.12000 136.980
60.29000 139.111
60.46000 140.917
60.63000 130.607
60.80000 129.461
60.97000 129.122
61.14000 132.347
61.31000 130.343
61.48000 150.597
61.65000 255.523
61.82000 193.816
61.99000 137.118
62.16000 141.348
62.33000 137.088
62.50000 140.694
62.67000 137.846
62.84000 140.669
63.01000 139.869
63.18000 148.856
63.35000 147.198
63.52000 142.334
63.69000 147.315
63.86000 151.860
64.03000 162.386
64.20000 153.458
64.37000 160.343
64.54000 170.843
64.71000 169.225
64.88000 181.054
65.05000 190.973
65.22000 211.870
65.39000 230.871
65.56000 280.373
65.73000 580.147
65.90000 1070.158
66.07000 376.172
66.24000 319.940
66.41000 441.232
66.58000 339.033
66.75000 323.170
66.92000 331.148
67.09000 365.845
67.26000 381.553
67.43000 428.192
67.60000 434.055
67.77000 463.504
67.94000 517.380
68.11000 567.818
68.28000 639.454
68.45000 730.269
68.62000 988.762
68.79000 1864.440
68.96000 10916.547
69.13000 53671.207
69.30000 32021.865
69.47000 8011.182
69.64000 1260.172
69.81000 818.049
69.98000 670.268
70.00000 672.253