Folder: Master-Thesis/XRD/25-09-2025/XY Data (part 5)

File: BTO_Mapping_Theta2Theta_25-09-2025_001_40_-24-271_-17-634.xy
20.00000 566.543
20.17000 563.781
20.34000 546.081
20.51000 532.389
20.68000 545.101
20.85000 545.946
21.02000 555.695
21.19000 541.080
21.36000 551.831
21.53000 545.535
21.70000 601.283
21.87000 775.415
22.04000 874.505
22.21000 699.386
22.38000 586.606
22.55000 539.861
22.72000 521.927
22.89000 509.137
23.06000 528.263
23.23000 492.030
23.40000 511.911
23.57000 471.373
23.74000 490.783
23.91000 488.755
24.08000 488.054
24.25000 475.977
24.42000 473.451
24.59000 468.807
24.76000 491.988
24.93000 475.756
25.10000 482.442
25.27000 457.144
25.44000 467.225
25.61000 466.005
25.78000 452.294
25.95000 456.103
26.12000 453.404
26.29000 466.674
26.46000 465.345
26.63000 453.017
26.80000 443.184
26.97000 448.818
27.14000 441.934
27.31000 443.653
27.48000 423.594
27.65000 441.745
27.82000 437.631
27.99000 437.162
28.16000 428.233
28.33000 420.664
28.50000 418.211
28.67000 418.295
28.84000 409.578
29.01000 402.685
29.18000 408.678
29.35000 426.768
29.52000 401.644
29.69000 408.816
29.86000 402.827
30.03000 434.265
30.20000 435.804
30.37000 430.348
30.54000 431.346
30.71000 438.612
30.88000 488.876
31.05000 841.280
31.22000 2026.417
31.39000 2657.996
31.56000 1518.047
31.73000 715.782
31.90000 492.469
32.07000 414.993
32.24000 386.012
32.41000 372.309
32.58000 365.585
32.75000 364.511
32.92000 399.677
33.09000 363.294
33.26000 345.596
33.43000 351.720
33.60000 344.119
33.77000 344.183
33.94000 332.016
34.11000 331.028
34.28000 327.712
34.45000 329.189
34.62000 318.646
34.79000 313.676
34.96000 324.295
35.13000 317.139
35.30000 319.818
35.47000 330.603
35.64000 303.061
35.81000 291.185
35.98000 309.349
36.15000 309.996
36.32000 289.203
36.49000 285.363
36.66000 288.016
36.83000 278.103
37.00000 288.989
37.17000 303.700
37.34000 297.019
37.51000 294.029
37.68000 291.652
37.85000 281.465
38.02000 299.100
38.19000 294.474
38.36000 338.615
38.53000 450.367
38.70000 498.257
38.87000 402.908
39.04000 301.532
39.21000 267.764
39.38000 263.207
39.55000 262.963
39.72000 263.031
39.89000 251.502
40.06000 265.939
40.23000 261.402
40.40000 249.138
40.57000 240.667
40.74000 232.174
40.91000 236.709
41.08000 246.585
41.25000 226.107
41.42000 252.399
41.59000 241.130
41.76000 236.846
41.93000 235.697
42.10000 212.062
42.27000 233.651
42.44000 233.056
42.61000 227.375
42.78000 223.480
42.95000 232.634
43.12000 226.869
43.29000 224.470
43.46000 228.585
43.63000 222.868
43.80000 222.513
43.97000 221.125
44.14000 230.289
44.31000 237.325
44.48000 256.349
44.65000 321.270
44.82000 416.272
44.99000 470.031
45.16000 384.597
45.33000 321.962
45.50000 284.006
45.67000 231.428
45.84000 234.665
46.01000 215.890
46.18000 209.867
46.35000 207.547
46.52000 196.461
46.69000 194.177
46.86000 201.060
47.03000 192.950
47.20000 195.316
47.37000 182.027
47.54000 175.397
47.71000 178.211
47.88000 184.680
48.05000 180.905
48.22000 179.082
48.39000 188.514
48.56000 185.924
48.73000 174.575
48.90000 175.674
49.07000 183.174
49.24000 182.796
49.41000 189.598
49.58000 184.607
49.75000 175.663
49.92000 179.637
50.09000 168.031
50.26000 190.065
50.43000 210.446
50.60000 232.968
50.77000 233.596
50.94000 201.873
51.11000 186.022
51.28000 172.108
51.45000 171.520
51.62000 168.151
51.79000 162.836
51.96000 156.424
52.13000 160.361
52.30000 155.537
52.47000 175.075
52.64000 169.878
52.81000 148.775
52.98000 158.477
53.15000 148.708
53.32000 150.259
53.49000 157.749
53.66000 150.761
53.83000 152.458
54.00000 145.019
54.17000 139.365
54.34000 147.810
54.51000 145.084
54.68000 155.384
54.85000 156.747
55.02000 153.636
55.19000 157.745
55.36000 180.376
55.53000 237.522
55.70000 339.649
55.87000 384.857
56.04000 345.966
56.21000 249.564
56.38000 196.338
56.55000 158.933
56.72000 146.723
56.89000 149.768
57.06000 145.612
57.23000 134.658
57.40000 148.229
57.57000 142.052
57.74000 143.377
57.91000 149.332
58.08000 134.600
58.25000 150.826
58.42000 136.542
58.59000 130.496
58.76000 141.276
58.93000 133.267
59.10000 126.266
59.27000 123.516
59.44000 121.000
59.61000 132.338
59.78000 132.237
59.95000 144.114
60.12000 120.154
60.29000 133.644
60.46000 137.461
60.63000 133.463
60.80000 140.323
60.97000 140.640
61.14000 142.200
61.31000 134.702
61.48000 150.798
61.65000 344.246
61.82000 228.159
61.99000 148.378
62.16000 145.853
62.33000 140.556
62.50000 144.421
62.67000 147.471
62.84000 150.367
63.01000 150.326
63.18000 152.400
63.35000 146.510
63.52000 164.521
63.69000 173.570
63.86000 148.193
64.03000 157.904
64.20000 157.166
64.37000 167.622
64.54000 170.782
64.71000 187.010
64.88000 193.702
65.05000 212.058
65.22000 284.155
65.39000 333.990
65.56000 391.127
65.73000 912.897
65.90000 1606.406
66.07000 503.996
66.24000 395.373
66.41000 585.674
66.58000 410.491
66.75000 375.760
66.92000 405.257
67.09000 407.092
67.26000 476.205
67.43000 483.456
67.60000 524.275
67.77000 562.305
67.94000 630.093
68.11000 676.406
68.28000 773.963
68.45000 892.235
68.62000 1362.929
68.79000 2746.190
68.96000 21003.535
69.13000 87503.469
69.30000 50689.605
69.47000 11895.003
69.64000 1594.110
69.81000 1019.848
69.98000 795.783
70.00000 768.197

File: BTO_Mapping_Theta2Theta_25-09-2025_001_41_-32-361_-23-511.xy
20.00000 556.546
20.17000 556.908
20.34000 565.171
20.51000 547.947
20.68000 525.668
20.85000 548.673
21.02000 553.039
21.19000 544.906
21.36000 566.620
21.53000 538.394
21.70000 599.853
21.87000 816.190
22.04000 957.617
22.21000 723.628
22.38000 599.247
22.55000 563.706
22.72000 524.825
22.89000 496.119
23.06000 511.352
23.23000 502.797
23.40000 522.923
23.57000 503.774
23.74000 495.360
23.91000 498.750
24.08000 503.701
24.25000 496.954
24.42000 486.601
24.59000 489.362
24.76000 490.117
24.93000 468.180
25.10000 474.258
25.27000 473.242
25.44000 465.638
25.61000 450.813
25.78000 457.009
25.95000 453.463
26.12000 458.021
26.29000 452.757
26.46000 453.815
26.63000 436.679
26.80000 444.226
26.97000 463.397
27.14000 435.901
27.31000 455.647
27.48000 437.636
27.65000 433.175
27.82000 425.980
27.99000 438.168
28.16000 426.608
28.33000 405.469
28.50000 421.345
28.67000 423.120
28.84000 405.875
29.01000 426.458
29.18000 412.450
29.35000 421.800
29.52000 402.397
29.69000 420.213
29.86000 441.691
30.03000 430.089
30.20000 429.446
30.37000 429.732
30.54000 450.400
30.71000 434.112
30.88000 504.817
31.05000 915.517
31.22000 2740.070
31.39000 3017.663
31.56000 1320.540
31.73000 678.498
31.90000 470.759
32.07000 424.680
32.24000 376.891
32.41000 384.735
32.58000 391.563
32.75000 357.488
32.92000 390.852
33.09000 361.724
33.26000 344.053
33.43000 336.277
33.60000 346.399
33.77000 343.684
33.94000 326.168
34.11000 343.396
34.28000 328.292
34.45000 330.249
34.62000 339.067
34.79000 335.015
34.96000 325.316
35.13000 313.876
35.30000 330.823
35.47000 317.541
35.64000 309.421
35.81000 313.601
35.98000 289.284
36.15000 299.292
36.32000 288.368
36.49000 296.066
36.66000 289.812
36.83000 297.814
37.00000 288.046
37.17000 297.793
37.34000 282.521
37.51000 271.304
37.68000 285.659
37.85000 282.388
38.02000 300.031
38.19000 304.902
38.36000 340.979
38.53000 438.220
38.70000 464.198
38.87000 337.501
39.04000 296.533
39.21000 261.967
39.38000 274.621
39.55000 260.727
39.72000 271.726
39.89000 259.254
40.06000 257.544
40.23000 253.290
40.40000 244.456
40.57000 240.397
40.74000 253.468
40.91000 241.432
41.08000 241.272
41.25000 250.140
41.42000 246.364
41.59000 238.018
41.76000 247.582
41.93000 238.950
42.10000 237.351
42.27000 232.263
42.44000 237.408
42.61000 232.692
42.78000 234.656
42.95000 235.627
43.12000 223.464
43.29000 229.352
43.46000 229.588
43.63000 233.943
43.80000 226.262
43.97000 231.948
44.14000 228.999
44.31000 231.065
44.48000 271.719
44.65000 338.247
44.82000 510.219
44.99000 543.318
45.16000 408.624
45.33000 333.097
45.50000 291.632
45.67000 253.954
45.84000 235.857
46.01000 219.479
46.18000 214.587
46.35000 217.112
46.52000 194.270
46.69000 211.434
46.86000 190.750
47.03000 203.962
47.20000 187.642
47.37000 194.673
47.54000 181.411
47.71000 197.545
47.88000 206.375
48.05000 184.337
48.22000 172.216
48.39000 193.830
48.56000 185.574
48.73000 189.075
48.90000 183.298
49.07000 180.620
49.24000 166.747
49.41000 184.007
49.58000 174.717
49.75000 185.466
49.92000 174.497
50.09000 178.490
50.26000 198.098
50.43000 233.807
50.60000 234.500
50.77000 230.683
50.94000 196.368
51.11000 182.921
51.28000 174.420
51.45000 164.267
51.62000 160.023
51.79000 170.427
51.96000 157.370
52.13000 153.583
52.30000 160.360
52.47000 159.301
52.64000 165.656
52.81000 157.466
52.98000 158.717
53.15000 162.565
53.32000 158.685
53.49000 162.299
53.66000 156.498
53.83000 150.819
54.00000 152.335
54.17000 155.822
54.34000 152.507
54.51000 150.575
54.68000 151.052
54.85000 158.114
55.02000 156.425
55.19000 166.671
55.36000 176.924
55.53000 236.489
55.70000 344.850
55.87000 392.195
56.04000 318.860
56.21000 231.923
56.38000 195.635
56.55000 165.114
56.72000 156.517
56.89000 149.035
57.06000 144.483
57.23000 136.472
57.40000 142.462
57.57000 139.323
57.74000 135.982
57.91000 134.480
58.08000 147.175
58.25000 150.176
58.42000 142.726
58.59000 142.728
58.76000 143.953
58.93000 140.168
59.10000 136.119
59.27000 146.320
59.44000 130.155
59.61000 130.875
59.78000 131.727
59.95000 128.797
60.12000 131.598
60.29000 131.778
60.46000 129.716
60.63000 140.107
60.80000 130.069
60.97000 134.135
61.14000 142.085
61.31000 136.395
61.48000 165.487
61.65000 326.612
61.82000 231.725
61.99000 135.016
62.16000 146.380
62.33000 141.002
62.50000 146.635
62.67000 140.937
62.84000 147.283
63.01000 144.691
63.18000 156.382
63.35000 146.657
63.52000 163.827
63.69000 160.255
63.86000 149.714
64.03000 157.617
64.20000 167.978
64.37000 163.372
64.54000 169.861
64.71000 173.980
64.88000 207.084
65.05000 241.269
65.22000 317.201
65.39000 380.631
65.56000 387.740
65.73000 813.463
65.90000 1529.697
66.07000 480.956
66.24000 375.506
66.41000 556.268
66.58000 402.698
66.75000 369.952
66.92000 362.072
67.09000 399.201
67.26000 429.683
67.43000 474.687
67.60000 525.357
67.77000 550.079
67.94000 600.826
68.11000 667.751
68.28000 715.364
68.45000 865.776
68.62000 1317.092
68.79000 2491.738
68.96000 19172.365
69.13000 83221.664
69.30000 47993.813
69.47000 11248.563
69.64000 1557.309
69.81000 994.931
69.98000 769.534
70.00000 748.454

File: BTO_Mapping_Theta2Theta_25-09-2025_001_43_-10-000_-17-321.xy
20.00000 541.586
20.17000 563.580
20.34000 552.187
20.51000 560.876
20.68000 539.326
20.85000 550.934
21.02000 547.023
21.19000 545.347
21.36000 529.748
21.53000 547.957
21.70000 567.662
21.87000 646.268
22.04000 739.671
22.21000 685.189
22.38000 600.676
22.55000 552.496
22.72000 525.915
22.89000 513.305
23.06000 500.192
23.23000 500.884
23.40000 500.170
23.57000 492.270
23.74000 494.224
23.91000 497.135
24.08000 502.798
24.25000 470.561
24.42000 478.378
24.59000 486.795
24.76000 479.652
24.93000 477.312
25.10000 474.024
25.27000 468.190
25.44000 461.845
25.61000 454.717
25.78000 448.833
25.95000 446.925
26.12000 459.933
26.29000 453.870
26.46000 423.500
26.63000 443.286
26.80000 451.508
26.97000 426.951
27.14000 433.181
27.31000 426.524
27.48000 434.485
27.65000 444.486
27.82000 421.978
27.99000 424.269
28.16000 419.325
28.33000 411.387
28.50000 403.595
28.67000 411.717
28.84000 415.995
29.01000 402.985
29.18000 392.992
29.35000 415.757
29.52000 413.142
29.69000 400.259
29.86000 417.940
30.03000 408.912
30.20000 435.793
30.37000 422.411
30.54000 412.643
30.71000 428.664
30.88000 461.627
31.05000 697.208
31.22000 1501.031
31.39000 2169.971
31.56000 1395.751
31.73000 691.243
31.90000 468.713
32.07000 408.956
32.24000 395.444
32.41000 377.495
32.58000 378.840
32.75000 366.743
32.92000 378.827
33.09000 371.103
33.26000 345.398
33.43000 330.479
33.60000 351.180
33.77000 331.305
33.94000 329.009
34.11000 323.874
34.28000 324.112
34.45000 318.478
34.62000 341.538
34.79000 302.329
34.96000 317.021
35.13000 296.865
35.30000 306.292
35.47000 313.546
35.64000 297.917
35.81000 317.104
35.98000 293.936
36.15000 294.128
36.32000 283.064
36.49000 279.888
36.66000 300.713
36.83000 300.553
37.00000 310.680
37.17000 308.209
37.34000 288.172
37.51000 292.567
37.68000 279.060
37.85000 274.809
38.02000 277.750
38.19000 301.392
38.36000 338.401
38.53000 485.989
38.70000 596.957
38.87000 471.324
39.04000 322.325
39.21000 265.550
39.38000 274.563
39.55000 274.006
39.72000 255.909
39.89000 240.154
40.06000 245.819
40.23000 250.344
40.40000 252.992
40.57000 247.617
40.74000 257.254
40.91000 244.549
41.08000 235.941
41.25000 245.942
41.42000 245.869
41.59000 234.618
41.76000 238.953
41.93000 223.716
42.10000 222.963
42.27000 241.516
42.44000 222.467
42.61000 246.782
42.78000 237.415
42.95000 219.397
43.12000 225.556
43.29000 223.760
43.46000 241.985
43.63000 222.154
43.80000 211.762
43.97000 218.244
44.14000 222.287
44.31000 218.075
44.48000 227.614
44.65000 247.979
44.82000 310.283
44.99000 353.833
45.16000 336.638
45.33000 310.487
45.50000 277.421
45.67000 242.956
45.84000 239.851
46.01000 223.714
46.18000 218.736
46.35000 203.728
46.52000 208.781
46.69000 191.339
46.86000 196.789
47.03000 191.057
47.20000 183.334
47.37000 200.223
47.54000 186.838
47.71000 186.405
47.88000 178.120
48.05000 188.855
48.22000 193.004
48.39000 180.622
48.56000 180.545
48.73000 175.672
48.90000 192.547
49.07000 181.838
49.24000 164.912
49.41000 167.339
49.58000 175.743
49.75000 183.538
49.92000 170.840
50.09000 167.042
50.26000 182.038
50.43000 208.496
50.60000 228.053
50.77000 222.739
50.94000 194.299
51.11000 169.475
51.28000 170.401
51.45000 166.368
51.62000 155.455
51.79000 163.312
51.96000 159.460
52.13000 162.525
52.30000 152.510
52.47000 143.499
52.64000 162.983
52.81000 165.295
52.98000 155.512
53.15000 149.436
53.32000 151.114
53.49000 147.223
53.66000 154.652
53.83000 160.196
54.00000 168.555
54.17000 150.638
54.34000 152.217
54.51000 137.947
54.68000 157.333
54.85000 157.449
55.02000 156.352
55.19000 155.164
55.36000 171.857
55.53000 212.053
55.70000 314.630
55.87000 395.230
56.04000 345.272
56.21000 263.652
56.38000 199.182
56.55000 166.511
56.72000 155.157
56.89000 148.271
57.06000 136.114
57.23000 159.504
57.40000 139.489
57.57000 137.730
57.74000 136.418
57.91000 130.347
58.08000 140.107
58.25000 142.951
58.42000 131.250
58.59000 145.572
58.76000 120.561
58.93000 122.971
59.10000 135.660
59.27000 132.345
59.44000 132.203
59.61000 132.176
59.78000 131.628
59.95000 126.093
60.12000 133.726
60.29000 142.649
60.46000 124.076
60.63000 136.819
60.80000 121.350
60.97000 127.870
61.14000 128.860
61.31000 144.589
61.48000 159.090
61.65000 291.448
61.82000 192.534
61.99000 160.656
62.16000 152.862
62.33000 127.049
62.50000 140.473
62.67000 145.956
62.84000 141.866
63.01000 142.201
63.18000 150.451
63.35000 153.164
63.52000 141.209
63.69000 142.250
63.86000 159.467
64.03000 158.960
64.20000 157.382
64.37000 166.112
64.54000 185.144
64.71000 174.289
64.88000 201.277
65.05000 202.437
65.22000 246.444
65.39000 276.494
65.56000 331.763
65.73000 711.004
65.90000 1233.378
66.07000 402.093
66.24000 339.984
66.41000 499.278
66.58000 389.983
66.75000 333.093
66.92000 347.045
67.09000 405.653
67.26000 394.658
67.43000 443.184
67.60000 469.984
67.77000 506.240
67.94000 537.087
68.11000 590.979
68.28000 638.965
68.45000 770.993
68.62000 1138.772
68.79000 2194.444
68.96000 14909.601
69.13000 64851.207
69.30000 37914.277
69.47000 8988.938
69.64000 1384.149
69.81000 872.475
69.98000 713.007
70.00000 690.056

File: BTO_Mapping_Theta2Theta_25-09-2025_001_47_-2-091_-19-890.xy
20.00000 573.748
20.17000 563.131
20.34000 562.063
20.51000 576.276
20.68000 539.913
20.85000 548.945
21.02000 557.421
21.19000 531.479
21.36000 540.274
21.53000 523.831
21.70000 570.953
21.87000 609.217
22.04000 667.078
22.21000 671.143
22.38000 585.094
22.55000 568.605
22.72000 520.042
22.89000 512.340
23.06000 510.651
23.23000 481.062
23.40000 479.897
23.57000 495.277
23.74000 501.799
23.91000 484.584
24.08000 497.383
24.25000 469.524
24.42000 472.969
24.59000 476.793
24.76000 467.902
24.93000 494.419
25.10000 456.264
25.27000 457.537
25.44000 460.606
25.61000 468.803
25.78000 477.186
25.95000 468.796
26.12000 471.125
26.29000 440.419
26.46000 433.902
26.63000 455.211
26.80000 441.926
26.97000 440.704
27.14000 432.195
27.31000 430.138
27.48000 452.315
27.65000 449.085
27.82000 424.561
27.99000 405.880
28.16000 428.579
28.33000 425.453
28.50000 419.904
28.67000 425.883
28.84000 414.144
29.01000 403.824
29.18000 405.672
29.35000 378.951
29.52000 400.445
29.69000 399.530
29.86000 398.703
30.03000 417.261
30.20000 410.772
30.37000 401.980
30.54000 409.313
30.71000 401.921
30.88000 435.171
31.05000 607.395
31.22000 1280.818
31.39000 1959.376
31.56000 1312.559
31.73000 657.303
31.90000 452.164
32.07000 396.130
32.24000 367.583
32.41000 384.603
32.58000 371.096
32.75000 361.689
32.92000 387.391
33.09000 363.334
33.26000 332.466
33.43000 328.175
33.60000 333.165
33.77000 325.867
33.94000 328.572
34.11000 332.106
34.28000 324.878
34.45000 324.014
34.62000 324.447
34.79000 325.353
34.96000 313.525
35.13000 317.941
35.30000 299.236
35.47000 295.726
35.64000 317.816
35.81000 303.269
35.98000 285.367
36.15000 297.966
36.32000 290.114
36.49000 297.017
36.66000 284.073
36.83000 291.051
37.00000 279.720
37.17000 279.987
37.34000 275.091
37.51000 278.246
37.68000 291.650
37.85000 292.802
38.02000 285.985
38.19000 290.678
38.36000 332.726
38.53000 514.287
38.70000 732.263
38.87000 572.313
39.04000 345.871
39.21000 281.576
39.38000 263.733
39.55000 277.058
39.72000 259.733
39.89000 270.913
40.06000 254.463
40.23000 259.716
40.40000 239.918
40.57000 242.768
40.74000 243.984
40.91000 235.360
41.08000 243.978
41.25000 243.517
41.42000 239.808
41.59000 227.296
41.76000 229.780
41.93000 224.390
42.10000 242.007
42.27000 240.051
42.44000 241.511
42.61000 229.445
42.78000 225.607
42.95000 223.835
43.12000 235.694
43.29000 243.844
43.46000 222.223
43.63000 221.721
43.80000 216.299
43.97000 220.211
44.14000 221.538
44.31000 220.858
44.48000 220.456
44.65000 228.848
44.82000 256.836
44.99000 303.082
45.16000 319.303
45.33000 288.847
45.50000 270.746
45.67000 243.169
45.84000 242.924
46.01000 217.280
46.18000 209.723
46.35000 199.711
46.52000 196.073
46.69000 204.685
46.86000 186.575
47.03000 203.304
47.20000 200.315
47.37000 193.644
47.54000 185.021
47.71000 193.107
47.88000 182.209
48.05000 173.403
48.22000 167.592
48.39000 189.714
48.56000 174.908
48.73000 173.338
48.90000 167.462
49.07000 181.573
49.24000 167.148
49.41000 165.267
49.58000 181.826
49.75000 170.732
49.92000 171.057
50.09000 171.951
50.26000 174.999
50.43000 194.227
50.60000 210.582
50.77000 217.830
50.94000 195.745
51.11000 183.060
51.28000 173.753
51.45000 167.774
51.62000 165.324
51.79000 164.545
51.96000 157.630
52.13000 177.773
52.30000 153.486
52.47000 158.396
52.64000 155.063
52.81000 155.234
52.98000 151.344
53.15000 158.177
53.32000 160.591
53.49000 157.334
53.66000 142.718
53.83000 138.056
54.00000 156.552
54.17000 156.402
54.34000 143.678
54.51000 158.564
54.68000 146.966
54.85000 154.687
55.02000 154.218
55.19000 162.827
55.36000 164.770
55.53000 215.980
55.70000 301.021
55.87000 434.798
56.04000 403.705
56.21000 282.992
56.38000 206.236
56.55000 163.781
56.72000 159.936
56.89000 143.933
57.06000 134.992
57.23000 134.376
57.40000 149.041
57.57000 133.962
57.74000 136.036
57.91000 146.041
58.08000 135.623
58.25000 138.607
58.42000 143.809
58.59000 131.329
58.76000 138.895
58.93000 133.722
59.10000 127.357
59.27000 129.180
59.44000 136.185
59.61000 125.540
59.78000 127.104
59.95000 136.176
60.12000 122.448
60.29000 125.866
60.46000 130.002
60.63000 130.034
60.80000 128.464
60.97000 134.164
61.14000 143.067
61.31000 135.173
61.48000 144.186
61.65000 263.997
61.82000 194.338
61.99000 140.362
62.16000 141.597
62.33000 144.138
62.50000 138.889
62.67000 145.542
62.84000 147.146
63.01000 139.304
63.18000 149.384
63.35000 143.843
63.52000 148.097
63.69000 159.411
63.86000 162.135
64.03000 155.726
64.20000 160.910
64.37000 159.923
64.54000 178.125
64.71000 178.118
64.88000 172.689
65.05000 193.295
65.22000 245.656
65.39000 264.661
65.56000 328.519
65.73000 640.545
65.90000 1121.794
66.07000 406.986
66.24000 337.776
66.41000 464.597
66.58000 350.406
66.75000 329.286
66.92000 368.904
67.09000 376.719
67.26000 379.781
67.43000 416.297
67.60000 457.214
67.77000 480.116
67.94000 536.511
68.11000 526.378
68.28000 608.925
68.45000 766.786
68.62000 1077.503
68.79000 1986.984
68.96000 12615.598
69.13000 58262.125
69.30000 34429.543
69.47000 8362.472
69.64000 1267.107
69.81000 865.464
69.98000 708.900
70.00000 671.237

File: BTO_Mapping_Theta2Theta_25-09-2025_001_51_6-180_-19-021.xy
20.00000 566.235
20.17000 549.036
20.34000 548.793
20.51000 538.198
20.68000 543.939
20.85000 549.473
21.02000 537.728
21.19000 544.432
21.36000 535.253
21.53000 537.915
21.70000 533.116
21.87000 572.452
22.04000 632.676
22.21000 652.424
22.38000 594.358
22.55000 554.995
22.72000 516.757
22.89000 522.905
23.06000 516.122
23.23000 515.320
23.40000 498.599
23.57000 491.549
23.74000 488.077
23.91000 488.549
24.08000 480.665
24.25000 468.958
24.42000 460.562
24.59000 464.491
24.76000 496.709
24.93000 456.389
25.10000 475.718
25.27000 449.258
25.44000 450.732
25.61000 455.079
25.78000 472.316
25.95000 463.119
26.12000 442.770
26.29000 434.957
26.46000 443.001
26.63000 446.715
26.80000 439.505
26.97000 429.452
27.14000 425.093
27.31000 429.090
27.48000 407.767
27.65000 426.166
27.82000 413.142
27.99000 426.543
28.16000 430.106
28.33000 414.307
28.50000 418.763
28.67000 431.512
28.84000 394.892
29.01000 392.354
29.18000 401.672
29.35000 409.475
29.52000 410.799
29.69000 395.800
29.86000 415.838
30.03000 403.041
30.20000 398.145
30.37000 401.441
30.54000 376.688
30.71000 411.920
30.88000 427.036
31.05000 549.390
31.22000 1006.961
31.39000 1525.411
31.56000 1082.691
31.73000 597.161
31.90000 452.905
32.07000 399.291
32.24000 400.046
32.41000 382.575
32.58000 385.892
32.75000 360.415
32.92000 368.568
33.09000 330.707
33.26000 337.647
33.43000 332.874
33.60000 336.275
33.77000 336.859
33.94000 328.961
34.11000 309.953
34.28000 315.591
34.45000 320.434
34.62000 326.340
34.79000 313.777
34.96000 302.840
35.13000 308.166
35.30000 313.112
35.47000 299.544
35.64000 298.576
35.81000 311.017
35.98000 300.554
36.15000 300.316
36.32000 293.420
36.49000 295.838
36.66000 282.744
36.83000 287.347
37.00000 311.499
37.17000 289.497
37.34000 294.429
37.51000 297.180
37.68000 299.459
37.85000 293.538
38.02000 294.654
38.19000 297.638
38.36000 309.913
38.53000 504.586
38.70000 819.346
38.87000 648.222
39.04000 348.359
39.21000 270.219
39.38000 265.415
39.55000 263.964
39.72000 263.559
39.89000 250.109
40.06000 252.207
40.23000 257.268
40.40000 248.971
40.57000 234.484
40.74000 249.290
40.91000 248.059
41.08000 246.055
41.25000 241.046
41.42000 233.697
41.59000 218.237
41.76000 231.319
41.93000 246.759
42.10000 232.489
42.27000 233.468
42.44000 232.871
42.61000 220.684
42.78000 214.005
42.95000 220.408
43.12000 219.159
43.29000 216.219
43.46000 212.096
43.63000 232.639
43.80000 233.247
43.97000 218.865
44.14000 209.699
44.31000 214.782
44.48000 234.351
44.65000 221.153
44.82000 240.438
44.99000 263.939
45.16000 273.989
45.33000 268.112
45.50000 251.711
45.67000 245.711
45.84000 233.704
46.01000 224.965
46.18000 218.828
46.35000 207.111
46.52000 189.576
46.69000 181.831
46.86000 194.684
47.03000 184.060
47.20000 183.546
47.37000 190.631
47.54000 194.192
47.71000 182.905
47.88000 188.791
48.05000 192.884
48.22000 194.577
48.39000 179.747
48.56000 174.774
48.73000 182.745
48.90000 176.594
49.07000 192.817
49.24000 170.533
49.41000 188.119
49.58000 171.238
49.75000 178.995
49.92000 168.401
50.09000 166.359
50.26000 177.365
50.43000 179.457
50.60000 197.082
50.77000 195.572
50.94000 193.030
51.11000 173.844
51.28000 164.394
51.45000 171.139
51.62000 162.404
51.79000 161.388
51.96000 161.448
52.13000 157.330
52.30000 156.625
52.47000 146.960
52.64000 156.727
52.81000 165.177
52.98000 153.307
53.15000 161.700
53.32000 160.556
53.49000 154.981
53.66000 147.352
53.83000 160.179
54.00000 156.897
54.17000 159.944
54.34000 156.247
54.51000 151.839
54.68000 148.355
54.85000 153.852
55.02000 148.865
55.19000 158.632
55.36000 159.667
55.53000 195.197
55.70000 288.462
55.87000 443.879
56.04000 455.313
56.21000 316.898
56.38000 207.083
56.55000 174.052
56.72000 154.705
56.89000 154.635
57.06000 147.626
57.23000 140.745
57.40000 144.811
57.57000 139.131
57.74000 139.308
57.91000 144.053
58.08000 142.337
58.25000 139.396
58.42000 132.237
58.59000 129.404
58.76000 126.005
58.93000 141.340
59.10000 129.006
59.27000 133.003
59.44000 126.374
59.61000 137.450
59.78000 133.225
59.95000 135.933
60.12000 124.556
60.29000 132.310
60.46000 121.577
60.63000 124.748
60.80000 128.764
60.97000 138.869
61.14000 130.676
61.31000 138.655
61.48000 145.360
61.65000 258.896
61.82000 208.673
61.99000 144.514
62.16000 129.154
62.33000 135.505
62.50000 141.694
62.67000 132.377
62.84000 140.530
63.01000 151.186
63.18000 146.510
63.35000 153.331
63.52000 145.742
63.69000 140.558
63.86000 153.567
64.03000 165.550
64.20000 151.697
64.37000 167.775
64.54000 159.929
64.71000 176.890
64.88000 171.272
65.05000 186.097
65.22000 221.484
65.39000 255.803
65.56000 287.722
65.73000 606.227
65.90000 1079.236
66.07000 379.964
66.24000 314.708
66.41000 433.609
66.58000 361.543
66.75000 322.300
66.92000 329.049
67.09000 372.444
67.26000 384.303
67.43000 398.644
67.60000 439.719
67.77000 461.664
67.94000 516.375
68.11000 570.632
68.28000 596.537
68.45000 733.200
68.62000 1044.469
68.79000 1886.253
68.96000 11189.547
69.13000 54784.355
69.30000 32552.465
69.47000 8137.533
69.64000 1258.340
69.81000 843.047
69.98000 680.800
70.00000 682.462