Folder: Master-Thesis/XRD/25-09-2025/XY Data (part 3)

File: BTO_Mapping_Theta2Theta_25-09-2025_001_24_-15-000_25-981.xy
20.00000 547.943
20.17000 559.157
20.34000 564.902
20.51000 545.018
20.68000 539.521
20.85000 538.976
21.02000 545.883
21.19000 553.299
21.36000 541.281
21.53000 534.129
21.70000 556.901
21.87000 579.341
22.04000 659.044
22.21000 637.528
22.38000 602.695
22.55000 541.622
22.72000 531.225
22.89000 496.142
23.06000 499.768
23.23000 499.050
23.40000 497.508
23.57000 513.731
23.74000 497.930
23.91000 487.810
24.08000 484.326
24.25000 483.887
24.42000 471.712
24.59000 470.713
24.76000 466.446
24.93000 452.711
25.10000 454.099
25.27000 474.401
25.44000 475.845
25.61000 465.086
25.78000 434.265
25.95000 441.030
26.12000 451.777
26.29000 448.905
26.46000 460.622
26.63000 421.408
26.80000 442.385
26.97000 435.015
27.14000 444.562
27.31000 432.990
27.48000 431.255
27.65000 441.419
27.82000 410.671
27.99000 428.902
28.16000 422.468
28.33000 404.057
28.50000 405.880
28.67000 419.428
28.84000 404.543
29.01000 396.546
29.18000 421.737
29.35000 393.450
29.52000 419.367
29.69000 390.545
29.86000 411.496
30.03000 392.039
30.20000 405.972
30.37000 399.899
30.54000 395.079
30.71000 412.409
30.88000 420.225
31.05000 526.517
31.22000 1014.912
31.39000 1543.235
31.56000 1088.862
31.73000 567.090
31.90000 431.287
32.07000 390.315
32.24000 392.816
32.41000 356.764
32.58000 380.535
32.75000 362.874
32.92000 378.800
33.09000 344.920
33.26000 338.465
33.43000 329.940
33.60000 346.224
33.77000 323.957
33.94000 343.656
34.11000 328.760
34.28000 307.671
34.45000 323.060
34.62000 318.337
34.79000 301.470
34.96000 317.939
35.13000 307.827
35.30000 322.113
35.47000 275.475
35.64000 295.472
35.81000 292.842
35.98000 301.756
36.15000 298.224
36.32000 284.156
36.49000 278.139
36.66000 286.375
36.83000 294.308
37.00000 299.580
37.17000 287.153
37.34000 295.401
37.51000 278.344
37.68000 275.970
37.85000 289.920
38.02000 296.071
38.19000 285.666
38.36000 318.658
38.53000 493.777
38.70000 803.097
38.87000 615.294
39.04000 355.717
39.21000 277.839
39.38000 263.729
39.55000 255.732
39.72000 267.401
39.89000 253.211
40.06000 255.926
40.23000 251.160
40.40000 258.415
40.57000 241.904
40.74000 239.355
40.91000 228.970
41.08000 246.109
41.25000 242.427
41.42000 245.584
41.59000 237.360
41.76000 237.845
41.93000 235.568
42.10000 227.767
42.27000 228.868
42.44000 222.787
42.61000 223.526
42.78000 218.258
42.95000 225.452
43.12000 237.430
43.29000 221.612
43.46000 213.731
43.63000 228.573
43.80000 229.146
43.97000 216.618
44.14000 220.211
44.31000 217.906
44.48000 217.181
44.65000 227.652
44.82000 220.826
44.99000 273.408
45.16000 287.426
45.33000 280.884
45.50000 263.124
45.67000 249.889
45.84000 233.258
46.01000 212.289
46.18000 204.240
46.35000 202.664
46.52000 200.179
46.69000 195.415
46.86000 200.188
47.03000 187.794
47.20000 185.837
47.37000 191.278
47.54000 182.875
47.71000 180.267
47.88000 194.809
48.05000 170.781
48.22000 184.872
48.39000 175.734
48.56000 177.198
48.73000 177.926
48.90000 175.015
49.07000 164.020
49.24000 176.181
49.41000 178.760
49.58000 165.809
49.75000 165.355
49.92000 171.177
50.09000 174.408
50.26000 180.489
50.43000 192.091
50.60000 201.884
50.77000 215.033
50.94000 198.688
51.11000 176.392
51.28000 182.493
51.45000 164.736
51.62000 158.329
51.79000 165.823
51.96000 161.206
52.13000 165.881
52.30000 153.441
52.47000 159.963
52.64000 153.125
52.81000 159.693
52.98000 153.350
53.15000 173.070
53.32000 154.890
53.49000 161.159
53.66000 150.808
53.83000 148.030
54.00000 162.233
54.17000 156.041
54.34000 136.732
54.51000 157.601
54.68000 146.638
54.85000 143.203
55.02000 157.229
55.19000 159.507
55.36000 162.971
55.53000 205.062
55.70000 290.352
55.87000 400.130
56.04000 441.968
56.21000 298.219
56.38000 210.887
56.55000 174.318
56.72000 169.513
56.89000 142.035
57.06000 142.310
57.23000 137.554
57.40000 146.627
57.57000 138.507
57.74000 150.247
57.91000 137.953
58.08000 147.549
58.25000 136.695
58.42000 130.013
58.59000 128.464
58.76000 143.573
58.93000 129.458
59.10000 138.380
59.27000 136.494
59.44000 130.791
59.61000 126.964
59.78000 131.878
59.95000 132.274
60.12000 124.836
60.29000 130.890
60.46000 128.630
60.63000 137.731
60.80000 132.254
60.97000 121.891
61.14000 135.881
61.31000 137.039
61.48000 153.166
61.65000 262.130
61.82000 193.551
61.99000 141.808
62.16000 134.944
62.33000 144.273
62.50000 138.127
62.67000 154.847
62.84000 148.920
63.01000 139.945
63.18000 137.082
63.35000 150.659
63.52000 137.837
63.69000 148.889
63.86000 148.883
64.03000 170.573
64.20000 164.890
64.37000 150.311
64.54000 172.445
64.71000 176.670
64.88000 189.670
65.05000 199.757
65.22000 227.205
65.39000 247.521
65.56000 305.470
65.73000 663.111
65.90000 1097.005
66.07000 387.651
66.24000 331.888
66.41000 449.996
66.58000 351.606
66.75000 335.001
66.92000 327.893
67.09000 367.196
67.26000 402.435
67.43000 421.566
67.60000 430.744
67.77000 476.047
67.94000 541.781
68.11000 551.182
68.28000 643.523
68.45000 765.597
68.62000 1096.490
68.79000 2019.104
68.96000 14345.561
69.13000 56788.621
69.30000 32364.203
69.47000 7195.870
69.64000 1259.050
69.81000 877.308
69.98000 670.438
70.00000 664.358

File: BTO_Mapping_Theta2Theta_25-09-2025_001_26_-8-090_5-878.xy
20.00000 554.673
20.17000 536.113
20.34000 542.780
20.51000 548.811
20.68000 547.711
20.85000 543.408
21.02000 546.926
21.19000 532.505
21.36000 533.832
21.53000 526.601
21.70000 546.147
21.87000 573.729
22.04000 648.880
22.21000 648.680
22.38000 609.079
22.55000 539.537
22.72000 524.313
22.89000 495.218
23.06000 511.914
23.23000 486.199
23.40000 490.224
23.57000 506.725
23.74000 486.342
23.91000 497.569
24.08000 480.730
24.25000 490.034
24.42000 485.966
24.59000 467.449
24.76000 477.559
24.93000 478.332
25.10000 465.204
25.27000 469.814
25.44000 450.919
25.61000 456.455
25.78000 450.964
25.95000 453.514
26.12000 441.043
26.29000 453.815
26.46000 448.244
26.63000 423.801
26.80000 426.871
26.97000 458.989
27.14000 416.887
27.31000 440.391
27.48000 433.228
27.65000 420.261
27.82000 433.783
27.99000 428.125
28.16000 430.123
28.33000 419.236
28.50000 415.216
28.67000 417.641
28.84000 417.013
29.01000 396.126
29.18000 409.994
29.35000 399.693
29.52000 403.674
29.69000 408.103
29.86000 403.409
30.03000 405.849
30.20000 409.951
30.37000 395.121
30.54000 395.467
30.71000 412.249
30.88000 456.208
31.05000 571.240
31.22000 1197.191
31.39000 1820.017
31.56000 1256.330
31.73000 630.665
31.90000 451.344
32.07000 402.713
32.24000 382.693
32.41000 374.202
32.58000 362.747
32.75000 353.535
32.92000 369.488
33.09000 348.969
33.26000 338.145
33.43000 344.831
33.60000 331.741
33.77000 336.946
33.94000 314.373
34.11000 326.050
34.28000 304.347
34.45000 318.047
34.62000 331.886
34.79000 318.838
34.96000 299.667
35.13000 319.045
35.30000 314.236
35.47000 305.202
35.64000 304.469
35.81000 305.743
35.98000 286.817
36.15000 305.533
36.32000 294.725
36.49000 280.840
36.66000 304.580
36.83000 303.271
37.00000 304.621
37.17000 284.840
37.34000 287.712
37.51000 280.686
37.68000 282.990
37.85000 292.284
38.02000 290.500
38.19000 305.329
38.36000 325.875
38.53000 499.416
38.70000 758.825
38.87000 591.896
39.04000 341.821
39.21000 267.879
39.38000 248.512
39.55000 263.213
39.72000 256.027
39.89000 256.996
40.06000 261.440
40.23000 262.293
40.40000 249.159
40.57000 255.160
40.74000 239.877
40.91000 239.383
41.08000 240.249
41.25000 232.030
41.42000 241.873
41.59000 238.382
41.76000 242.149
41.93000 230.627
42.10000 219.542
42.27000 222.294
42.44000 240.501
42.61000 228.984
42.78000 229.006
42.95000 230.942
43.12000 220.000
43.29000 220.395
43.46000 223.278
43.63000 225.453
43.80000 228.475
43.97000 216.453
44.14000 213.381
44.31000 229.390
44.48000 217.298
44.65000 235.693
44.82000 255.934
44.99000 293.505
45.16000 282.122
45.33000 279.132
45.50000 275.227
45.67000 252.616
45.84000 230.561
46.01000 227.256
46.18000 207.940
46.35000 212.806
46.52000 201.885
46.69000 202.409
46.86000 191.357
47.03000 184.694
47.20000 184.318
47.37000 187.782
47.54000 178.246
47.71000 180.903
47.88000 189.919
48.05000 179.597
48.22000 184.717
48.39000 177.863
48.56000 188.612
48.73000 175.827
48.90000 180.912
49.07000 170.617
49.24000 175.910
49.41000 165.971
49.58000 168.466
49.75000 166.030
49.92000 176.469
50.09000 187.092
50.26000 173.046
50.43000 201.861
50.60000 214.176
50.77000 197.142
50.94000 176.457
51.11000 194.704
51.28000 169.111
51.45000 171.854
51.62000 150.310
51.79000 158.044
51.96000 166.051
52.13000 157.236
52.30000 160.090
52.47000 163.112
52.64000 141.242
52.81000 158.308
52.98000 142.490
53.15000 163.185
53.32000 154.521
53.49000 156.555
53.66000 156.543
53.83000 152.105
54.00000 144.666
54.17000 157.455
54.34000 160.109
54.51000 152.234
54.68000 150.456
54.85000 146.376
55.02000 154.986
55.19000 151.793
55.36000 169.218
55.53000 202.669
55.70000 305.401
55.87000 444.951
56.04000 431.618
56.21000 287.964
56.38000 209.185
56.55000 172.778
56.72000 152.160
56.89000 148.064
57.06000 138.544
57.23000 144.210
57.40000 136.777
57.57000 134.455
57.74000 134.653
57.91000 133.342
58.08000 147.995
58.25000 129.672
58.42000 139.694
58.59000 134.144
58.76000 139.031
58.93000 129.397
59.10000 125.953
59.27000 125.185
59.44000 138.136
59.61000 132.961
59.78000 129.685
59.95000 138.902
60.12000 128.111
60.29000 143.386
60.46000 138.543
60.63000 125.952
60.80000 133.664
60.97000 132.258
61.14000 141.189
61.31000 137.450
61.48000 147.585
61.65000 265.940
61.82000 186.662
61.99000 146.412
62.16000 136.565
62.33000 143.318
62.50000 138.781
62.67000 146.160
62.84000 137.206
63.01000 144.484
63.18000 148.979
63.35000 152.137
63.52000 149.703
63.69000 148.735
63.86000 157.253
64.03000 163.963
64.20000 152.794
64.37000 161.065
64.54000 169.741
64.71000 170.569
64.88000 178.189
65.05000 203.172
65.22000 213.546
65.39000 264.089
65.56000 314.685
65.73000 661.107
65.90000 1141.627
66.07000 389.330
66.24000 324.200
66.41000 460.198
66.58000 351.990
66.75000 328.415
66.92000 336.004
67.09000 364.724
67.26000 401.314
67.43000 419.915
67.60000 445.581
67.77000 493.073
67.94000 529.092
68.11000 557.064
68.28000 645.382
68.45000 749.540
68.62000 1064.336
68.79000 2004.422
68.96000 13359.900
69.13000 57335.063
69.30000 33247.430
69.47000 7814.210
69.64000 1291.917
69.81000 835.445
69.98000 667.993
70.00000 659.082

File: BTO_Mapping_Theta2Theta_25-09-2025_001_27_-16-180_11-756.xy
20.00000 563.708
20.17000 539.957
20.34000 578.621
20.51000 549.810
20.68000 543.118
20.85000 536.049
21.02000 542.915
21.19000 544.548
21.36000 522.723
21.53000 514.135
21.70000 574.168
21.87000 630.030
22.04000 697.725
22.21000 659.462
22.38000 615.258
22.55000 563.247
22.72000 520.584
22.89000 501.023
23.06000 525.830
23.23000 499.701
23.40000 499.230
23.57000 505.701
23.74000 513.174
23.91000 485.543
24.08000 477.536
24.25000 496.048
24.42000 499.952
24.59000 480.084
24.76000 481.078
24.93000 483.816
25.10000 471.082
25.27000 472.041
25.44000 465.214
25.61000 464.073
25.78000 466.428
25.95000 459.106
26.12000 454.201
26.29000 443.746
26.46000 458.372
26.63000 443.269
26.80000 439.293
26.97000 443.248
27.14000 418.939
27.31000 408.260
27.48000 424.055
27.65000 409.898
27.82000 432.050
27.99000 406.078
28.16000 423.531
28.33000 424.014
28.50000 424.679
28.67000 420.438
28.84000 422.684
29.01000 412.239
29.18000 427.193
29.35000 415.367
29.52000 400.944
29.69000 396.563
29.86000 413.691
30.03000 436.368
30.20000 411.349
30.37000 409.176
30.54000 408.724
30.71000 413.864
30.88000 430.916
31.05000 611.238
31.22000 1373.467
31.39000 2013.727
31.56000 1334.905
31.73000 657.796
31.90000 451.462
32.07000 402.389
32.24000 382.630
32.41000 382.765
32.58000 379.384
32.75000 371.164
32.92000 367.386
33.09000 363.969
33.26000 341.339
33.43000 338.920
33.60000 315.410
33.77000 330.054
33.94000 330.507
34.11000 330.617
34.28000 321.087
34.45000 312.322
34.62000 322.089
34.79000 311.139
34.96000 316.932
35.13000 315.451
35.30000 307.678
35.47000 294.704
35.64000 327.246
35.81000 320.977
35.98000 284.021
36.15000 308.682
36.32000 297.459
36.49000 314.606
36.66000 300.867
36.83000 287.877
37.00000 292.958
37.17000 295.611
37.34000 306.319
37.51000 282.537
37.68000 295.925
37.85000 281.800
38.02000 282.317
38.19000 302.466
38.36000 327.103
38.53000 487.063
38.70000 708.336
38.87000 544.972
39.04000 330.137
39.21000 286.725
39.38000 274.181
39.55000 273.285
39.72000 255.793
39.89000 261.253
40.06000 253.003
40.23000 261.088
40.40000 251.369
40.57000 247.881
40.74000 254.904
40.91000 250.406
41.08000 239.269
41.25000 246.188
41.42000 239.717
41.59000 239.856
41.76000 226.759
41.93000 244.446
42.10000 229.402
42.27000 213.750
42.44000 227.941
42.61000 236.674
42.78000 223.380
42.95000 226.980
43.12000 215.855
43.29000 218.737
43.46000 217.028
43.63000 219.064
43.80000 207.227
43.97000 227.950
44.14000 209.678
44.31000 220.323
44.48000 206.398
44.65000 229.057
44.82000 271.479
44.99000 318.789
45.16000 306.730
45.33000 307.867
45.50000 269.222
45.67000 256.973
45.84000 238.249
46.01000 216.282
46.18000 219.157
46.35000 200.707
46.52000 201.098
46.69000 204.252
46.86000 189.828
47.03000 183.123
47.20000 186.799
47.37000 188.699
47.54000 186.879
47.71000 184.966
47.88000 190.427
48.05000 185.796
48.22000 175.126
48.39000 182.419
48.56000 181.489
48.73000 178.315
48.90000 171.360
49.07000 177.683
49.24000 177.556
49.41000 185.846
49.58000 180.462
49.75000 180.013
49.92000 179.799
50.09000 185.465
50.26000 166.582
50.43000 196.429
50.60000 218.679
50.77000 223.310
50.94000 209.899
51.11000 187.645
51.28000 165.537
51.45000 160.423
51.62000 161.837
51.79000 158.528
51.96000 170.676
52.13000 155.655
52.30000 160.271
52.47000 156.723
52.64000 169.713
52.81000 145.148
52.98000 152.612
53.15000 155.348
53.32000 160.044
53.49000 164.432
53.66000 153.453
53.83000 161.269
54.00000 160.387
54.17000 149.653
54.34000 152.195
54.51000 159.942
54.68000 137.905
54.85000 152.515
55.02000 152.416
55.19000 163.955
55.36000 167.369
55.53000 199.810
55.70000 298.323
55.87000 402.513
56.04000 385.408
56.21000 282.160
56.38000 215.155
56.55000 155.180
56.72000 160.551
56.89000 148.231
57.06000 145.136
57.23000 149.938
57.40000 151.911
57.57000 141.065
57.74000 137.982
57.91000 136.406
58.08000 139.717
58.25000 135.280
58.42000 137.896
58.59000 137.322
58.76000 126.790
58.93000 130.740
59.10000 138.525
59.27000 135.382
59.44000 131.817
59.61000 135.487
59.78000 130.006
59.95000 124.867
60.12000 130.219
60.29000 126.934
60.46000 135.656
60.63000 127.656
60.80000 126.821
60.97000 126.903
61.14000 136.148
61.31000 133.207
61.48000 155.425
61.65000 262.841
61.82000 191.398
61.99000 141.547
62.16000 134.223
62.33000 130.423
62.50000 134.100
62.67000 146.608
62.84000 148.525
63.01000 143.354
63.18000 148.189
63.35000 145.106
63.52000 147.531
63.69000 141.655
63.86000 147.268
64.03000 145.294
64.20000 156.061
64.37000 161.056
64.54000 156.655
64.71000 186.450
64.88000 188.360
65.05000 210.677
65.22000 240.229
65.39000 264.759
65.56000 321.954
65.73000 693.452
65.90000 1185.017
66.07000 403.206
66.24000 345.327
66.41000 481.874
66.58000 352.416
66.75000 332.668
66.92000 339.129
67.09000 369.013
67.26000 384.908
67.43000 428.072
67.60000 456.221
67.77000 504.915
67.94000 543.245
68.11000 633.823
68.28000 638.592
68.45000 753.449
68.62000 1126.311
68.79000 2155.259
68.96000 14905.036
69.13000 60952.688
69.30000 34914.086
69.47000 7940.973
69.64000 1259.978
69.81000 853.191
69.98000 683.993
70.00000 671.825

File: BTO_Mapping_Theta2Theta_25-09-2025_001_28_-24-271_17-634.xy
20.00000 562.714
20.17000 557.181
20.34000 554.720
20.51000 547.501
20.68000 545.089
20.85000 550.075
21.02000 535.700
21.19000 560.693
21.36000 557.648
21.53000 536.509
21.70000 559.787
21.87000 655.890
22.04000 758.590
22.21000 687.710
22.38000 615.656
22.55000 552.189
22.72000 530.445
22.89000 509.364
23.06000 500.712
23.23000 519.499
23.40000 501.104
23.57000 506.715
23.74000 475.143
23.91000 486.992
24.08000 490.597
24.25000 471.738
24.42000 481.728
24.59000 488.223
24.76000 460.891
24.93000 481.320
25.10000 481.764
25.27000 481.440
25.44000 454.505
25.61000 470.334
25.78000 440.757
25.95000 458.160
26.12000 462.705
26.29000 455.278
26.46000 444.440
26.63000 447.565
26.80000 440.533
26.97000 430.133
27.14000 443.247
27.31000 428.346
27.48000 434.607
27.65000 401.795
27.82000 444.637
27.99000 421.085
28.16000 424.688
28.33000 426.014
28.50000 399.695
28.67000 411.939
28.84000 422.416
29.01000 411.755
29.18000 438.395
29.35000 394.513
29.52000 405.929
29.69000 409.056
29.86000 431.779
30.03000 422.642
30.20000 408.643
30.37000 405.411
30.54000 418.712
30.71000 429.263
30.88000 446.502
31.05000 625.916
31.22000 1426.377
31.39000 2166.540
31.56000 1411.091
31.73000 699.863
31.90000 482.955
32.07000 442.488
32.24000 402.974
32.41000 388.123
32.58000 359.960
32.75000 369.688
32.92000 404.464
33.09000 353.881
33.26000 345.617
33.43000 352.416
33.60000 335.140
33.77000 330.509
33.94000 312.627
34.11000 320.085
34.28000 326.074
34.45000 316.260
34.62000 315.217
34.79000 317.011
34.96000 307.641
35.13000 319.645
35.30000 294.603
35.47000 290.767
35.64000 293.653
35.81000 296.040
35.98000 302.427
36.15000 302.144
36.32000 292.276
36.49000 296.035
36.66000 288.072
36.83000 284.753
37.00000 286.961
37.17000 306.666
37.34000 296.402
37.51000 265.394
37.68000 286.563
37.85000 281.435
38.02000 281.072
38.19000 292.476
38.36000 324.108
38.53000 450.261
38.70000 601.499
38.87000 477.855
39.04000 323.599
39.21000 271.390
39.38000 274.736
39.55000 259.735
39.72000 259.952
39.89000 259.627
40.06000 263.710
40.23000 242.175
40.40000 245.012
40.57000 242.356
40.74000 243.508
40.91000 255.379
41.08000 243.563
41.25000 224.024
41.42000 234.877
41.59000 234.841
41.76000 228.133
41.93000 239.004
42.10000 230.010
42.27000 223.690
42.44000 224.487
42.61000 225.453
42.78000 213.479
42.95000 228.460
43.12000 206.737
43.29000 234.274
43.46000 231.419
43.63000 209.815
43.80000 218.239
43.97000 222.689
44.14000 217.809
44.31000 222.325
44.48000 232.073
44.65000 253.047
44.82000 293.275
44.99000 366.908
45.16000 351.663
45.33000 316.996
45.50000 273.142
45.67000 246.420
45.84000 236.950
46.01000 225.801
46.18000 216.536
46.35000 191.808
46.52000 190.290
46.69000 192.425
46.86000 191.275
47.03000 199.398
47.20000 188.649
47.37000 185.507
47.54000 192.655
47.71000 181.498
47.88000 178.875
48.05000 175.858
48.22000 186.341
48.39000 185.736
48.56000 178.025
48.73000 169.510
48.90000 175.141
49.07000 169.780
49.24000 171.222
49.41000 184.914
49.58000 171.617
49.75000 175.005
49.92000 173.268
50.09000 180.168
50.26000 180.887
50.43000 197.741
50.60000 217.558
50.77000 218.982
50.94000 194.947
51.11000 180.103
51.28000 168.623
51.45000 162.166
51.62000 166.787
51.79000 167.624
51.96000 151.822
52.13000 163.698
52.30000 164.500
52.47000 153.186
52.64000 166.094
52.81000 159.486
52.98000 151.307
53.15000 152.709
53.32000 152.190
53.49000 159.042
53.66000 152.999
53.83000 149.656
54.00000 155.032
54.17000 147.447
54.34000 160.589
54.51000 155.081
54.68000 165.240
54.85000 157.194
55.02000 155.551
55.19000 159.169
55.36000 170.488
55.53000 213.293
55.70000 289.511
55.87000 405.439
56.04000 367.388
56.21000 263.718
56.38000 212.339
56.55000 177.001
56.72000 167.714
56.89000 149.560
57.06000 145.215
57.23000 155.225
57.40000 135.349
57.57000 140.307
57.74000 146.119
57.91000 136.544
58.08000 133.167
58.25000 145.949
58.42000 130.461
58.59000 131.592
58.76000 148.857
58.93000 131.946
59.10000 138.855
59.27000 132.367
59.44000 139.295
59.61000 135.389
59.78000 131.155
59.95000 128.991
60.12000 143.288
60.29000 139.304
60.46000 121.840
60.63000 132.075
60.80000 131.686
60.97000 140.898
61.14000 131.779
61.31000 138.144
61.48000 150.278
61.65000 281.554
61.82000 205.513
61.99000 148.466
62.16000 139.040
62.33000 140.189
62.50000 141.879
62.67000 145.411
62.84000 138.209
63.01000 146.288
63.18000 145.773
63.35000 148.349
63.52000 155.856
63.69000 146.929
63.86000 149.218
64.03000 168.040
64.20000 160.581
64.37000 163.201
64.54000 162.883
64.71000 185.077
64.88000 189.559
65.05000 208.080
65.22000 245.098
65.39000 290.345
65.56000 351.931
65.73000 731.705
65.90000 1266.713
66.07000 419.215
66.24000 334.876
66.41000 496.735
66.58000 365.273
66.75000 333.838
66.92000 357.140
67.09000 372.903
67.26000 413.114
67.43000 433.501
67.60000 465.085
67.77000 494.881
67.94000 553.222
68.11000 592.071
68.28000 670.315
68.45000 764.360
68.62000 1162.450
68.79000 2232.547
68.96000 15736.537
69.13000 65164.496
69.30000 37640.340
69.47000 8791.320
69.64000 1334.749
69.81000 916.340
69.98000 714.513
70.00000 693.564

File: BTO_Mapping_Theta2Theta_25-09-2025_001_29_-32-361_23-511.xy
20.00000 550.790
20.17000 545.637
20.34000 556.412
20.51000 535.448
20.68000 553.809
20.85000 564.269
21.02000 539.927
21.19000 565.705
21.36000 543.419
21.53000 546.520
21.70000 593.594
21.87000 712.083
22.04000 811.442
22.21000 716.335
22.38000 628.236
22.55000 542.575
22.72000 519.801
22.89000 524.833
23.06000 516.565
23.23000 482.204
23.40000 508.596
23.57000 500.522
23.74000 494.030
23.91000 506.271
24.08000 491.515
24.25000 488.346
24.42000 476.041
24.59000 455.105
24.76000 477.618
24.93000 474.700
25.10000 468.257
25.27000 461.675
25.44000 478.666
25.61000 457.608
25.78000 459.276
25.95000 465.836
26.12000 458.568
26.29000 445.571
26.46000 458.582
26.63000 438.136
26.80000 445.761
26.97000 423.005
27.14000 427.684
27.31000 423.921
27.48000 425.150
27.65000 436.515
27.82000 427.223
27.99000 409.865
28.16000 418.487
28.33000 414.083
28.50000 421.249
28.67000 419.484
28.84000 413.109
29.01000 415.157
29.18000 395.884
29.35000 413.307
29.52000 403.180
29.69000 405.136
29.86000 406.397
30.03000 429.958
30.20000 425.734
30.37000 408.121
30.54000 411.210
30.71000 419.267
30.88000 468.711
31.05000 676.821
31.22000 1513.211
31.39000 2312.344
31.56000 1510.294
31.73000 742.350
31.90000 482.947
32.07000 417.495
32.24000 395.998
32.41000 390.891
32.58000 356.395
32.75000 374.096
32.92000 392.129
33.09000 354.051
33.26000 340.679
33.43000 334.766
33.60000 331.473
33.77000 322.669
33.94000 336.481
34.11000 326.544
34.28000 319.410
34.45000 328.884
34.62000 317.801
34.79000 311.501
34.96000 317.968
35.13000 314.731
35.30000 310.151
35.47000 321.912
35.64000 299.848
35.81000 298.473
35.98000 295.261
36.15000 306.617
36.32000 292.900
36.49000 299.896
36.66000 290.518
36.83000 295.305
37.00000 288.438
37.17000 300.377
37.34000 293.918
37.51000 282.882
37.68000 276.520
37.85000 288.187
38.02000 281.078
38.19000 303.464
38.36000 318.938
38.53000 422.852
38.70000 548.245
38.87000 457.114
39.04000 314.888
39.21000 281.268
39.38000 276.157
39.55000 270.173
39.72000 248.835
39.89000 259.605
40.06000 248.071
40.23000 254.194
40.40000 243.577
40.57000 257.202
40.74000 254.094
40.91000 233.256
41.08000 232.816
41.25000 242.218
41.42000 246.239
41.59000 241.947
41.76000 248.509
41.93000 247.064
42.10000 237.723
42.27000 224.247
42.44000 234.090
42.61000 230.436
42.78000 228.662
42.95000 235.744
43.12000 223.459
43.29000 218.121
43.46000 244.277
43.63000 230.156
43.80000 213.660
43.97000 216.268
44.14000 221.777
44.31000 232.255
44.48000 249.268
44.65000 259.916
44.82000 314.417
44.99000 404.152
45.16000 378.264
45.33000 330.948
45.50000 297.308
45.67000 274.261
45.84000 240.229
46.01000 215.276
46.18000 211.955
46.35000 213.806
46.52000 197.669
46.69000 212.548
46.86000 188.475
47.03000 195.340
47.20000 196.212
47.37000 192.932
47.54000 182.590
47.71000 185.420
47.88000 195.641
48.05000 168.445
48.22000 179.201
48.39000 180.576
48.56000 185.776
48.73000 178.789
48.90000 173.877
49.07000 177.505
49.24000 169.012
49.41000 173.408
49.58000 174.958
49.75000 169.620
49.92000 170.143
50.09000 178.783
50.26000 186.053
50.43000 207.556
50.60000 222.586
50.77000 211.046
50.94000 198.206
51.11000 195.988
51.28000 170.999
51.45000 171.007
51.62000 154.675
51.79000 165.093
51.96000 159.307
52.13000 162.053
52.30000 161.361
52.47000 154.415
52.64000 150.871
52.81000 163.945
52.98000 156.339
53.15000 154.087
53.32000 152.148
53.49000 165.332
53.66000 160.817
53.83000 156.731
54.00000 142.395
54.17000 138.315
54.34000 159.243
54.51000 147.146
54.68000 138.943
54.85000 143.671
55.02000 156.847
55.19000 160.441
55.36000 167.093
55.53000 208.614
55.70000 283.356
55.87000 378.039
56.04000 372.145
56.21000 251.172
56.38000 206.965
56.55000 180.439
56.72000 149.678
56.89000 155.612
57.06000 140.120
57.23000 139.944
57.40000 135.625
57.57000 128.959
57.74000 131.335
57.91000 142.094
58.08000 135.959
58.25000 134.757
58.42000 141.817
58.59000 130.369
58.76000 145.087
58.93000 134.214
59.10000 134.720
59.27000 135.998
59.44000 136.416
59.61000 140.069
59.78000 138.125
59.95000 130.844
60.12000 130.852
60.29000 130.263
60.46000 135.340
60.63000 131.103
60.80000 133.155
60.97000 137.887
61.14000 131.375
61.31000 134.004
61.48000 148.092
61.65000 310.689
61.82000 199.617
61.99000 156.036
62.16000 147.195
62.33000 144.727
62.50000 158.032
62.67000 142.313
62.84000 145.360
63.01000 140.002
63.18000 148.469
63.35000 136.215
63.52000 148.359
63.69000 145.911
63.86000 143.220
64.03000 164.505
64.20000 163.370
64.37000 169.361
64.54000 169.932
64.71000 179.610
64.88000 184.750
65.05000 207.217
65.22000 254.706
65.39000 287.253
65.56000 341.656
65.73000 775.891
65.90000 1342.676
66.07000 432.464
66.24000 355.064
66.41000 523.725
66.58000 378.040
66.75000 357.645
66.92000 348.939
67.09000 383.778
67.26000 411.939
67.43000 442.038
67.60000 481.686
67.77000 526.640
67.94000 560.503
68.11000 612.915
68.28000 680.813
68.45000 809.641
68.62000 1248.358
68.79000 2377.194
68.96000 17751.033
69.13000 69774.172
69.30000 40008.168
69.47000 9153.984
69.64000 1433.733
69.81000 921.326
69.98000 737.032
70.00000 703.726