Folder: Master-Thesis/XRD/25-09-2025/XY Data (part 4)

File: BTO_Mapping_Theta2Theta_25-09-2025_001_33_-39-126_8-316.xy
20.00000 570.853
20.17000 561.068
20.34000 589.885
20.51000 565.757
20.68000 553.079
20.85000 557.634
21.02000 553.863
21.19000 554.034
21.36000 544.760
21.53000 525.937
21.70000 613.847
21.87000 789.785
22.04000 911.734
22.21000 707.205
22.38000 600.727
22.55000 554.830
22.72000 542.329
22.89000 500.304
23.06000 511.957
23.23000 508.305
23.40000 494.812
23.57000 519.504
23.74000 482.422
23.91000 491.359
24.08000 487.499
24.25000 498.394
24.42000 488.456
24.59000 467.654
24.76000 484.122
24.93000 497.942
25.10000 454.118
25.27000 467.828
25.44000 469.763
25.61000 456.519
25.78000 467.898
25.95000 454.310
26.12000 470.883
26.29000 437.342
26.46000 453.089
26.63000 452.446
26.80000 442.920
26.97000 447.080
27.14000 434.759
27.31000 433.407
27.48000 453.712
27.65000 430.281
27.82000 439.413
27.99000 451.452
28.16000 430.950
28.33000 429.351
28.50000 401.386
28.67000 411.686
28.84000 417.317
29.01000 420.614
29.18000 413.012
29.35000 399.484
29.52000 418.956
29.69000 422.695
29.86000 437.872
30.03000 441.957
30.20000 438.642
30.37000 408.741
30.54000 416.321
30.71000 443.316
30.88000 502.210
31.05000 847.725
31.22000 2180.539
31.39000 3016.243
31.56000 1656.020
31.73000 774.693
31.90000 508.201
32.07000 425.429
32.24000 400.947
32.41000 365.419
32.58000 365.222
32.75000 361.064
32.92000 402.640
33.09000 376.953
33.26000 347.883
33.43000 337.758
33.60000 340.879
33.77000 347.542
33.94000 339.439
34.11000 335.546
34.28000 327.285
34.45000 324.669
34.62000 313.119
34.79000 326.126
34.96000 311.056
35.13000 320.836
35.30000 309.960
35.47000 302.640
35.64000 306.172
35.81000 319.015
35.98000 298.107
36.15000 296.921
36.32000 304.605
36.49000 301.693
36.66000 293.639
36.83000 301.517
37.00000 285.544
37.17000 290.067
37.34000 296.547
37.51000 276.475
37.68000 287.885
37.85000 290.043
38.02000 283.135
38.19000 312.969
38.36000 320.727
38.53000 450.675
38.70000 492.874
38.87000 361.136
39.04000 298.121
39.21000 280.177
39.38000 269.072
39.55000 255.305
39.72000 274.302
39.89000 261.825
40.06000 260.429
40.23000 252.620
40.40000 235.487
40.57000 249.478
40.74000 238.767
40.91000 252.512
41.08000 234.246
41.25000 245.171
41.42000 238.344
41.59000 236.900
41.76000 233.771
41.93000 234.350
42.10000 233.196
42.27000 235.829
42.44000 227.510
42.61000 229.062
42.78000 232.397
42.95000 235.452
43.12000 241.150
43.29000 213.937
43.46000 220.891
43.63000 224.313
43.80000 228.299
43.97000 238.393
44.14000 221.675
44.31000 230.357
44.48000 247.033
44.65000 319.060
44.82000 422.572
44.99000 476.914
45.16000 420.218
45.33000 308.630
45.50000 295.103
45.67000 245.001
45.84000 232.839
46.01000 218.211
46.18000 216.339
46.35000 211.684
46.52000 201.819
46.69000 210.897
46.86000 196.702
47.03000 200.942
47.20000 198.903
47.37000 179.374
47.54000 187.847
47.71000 188.647
47.88000 198.814
48.05000 190.332
48.22000 188.276
48.39000 178.530
48.56000 193.232
48.73000 177.523
48.90000 182.221
49.07000 174.960
49.24000 184.093
49.41000 182.907
49.58000 171.071
49.75000 172.478
49.92000 174.691
50.09000 175.561
50.26000 187.794
50.43000 218.243
50.60000 244.027
50.77000 232.069
50.94000 199.028
51.11000 198.319
51.28000 186.594
51.45000 180.644
51.62000 163.018
51.79000 164.964
51.96000 161.592
52.13000 160.479
52.30000 163.716
52.47000 155.759
52.64000 163.056
52.81000 162.916
52.98000 164.441
53.15000 161.786
53.32000 158.351
53.49000 163.967
53.66000 142.760
53.83000 147.231
54.00000 147.035
54.17000 147.478
54.34000 154.301
54.51000 154.937
54.68000 149.615
54.85000 156.798
55.02000 157.019
55.19000 154.716
55.36000 184.816
55.53000 225.882
55.70000 319.403
55.87000 374.284
56.04000 351.631
56.21000 250.485
56.38000 201.824
56.55000 167.427
56.72000 152.128
56.89000 144.369
57.06000 140.169
57.23000 148.442
57.40000 138.421
57.57000 140.314
57.74000 151.659
57.91000 158.979
58.08000 142.470
58.25000 136.219
58.42000 130.030
58.59000 133.938
58.76000 133.541
58.93000 141.184
59.10000 141.456
59.27000 146.385
59.44000 135.668
59.61000 135.035
59.78000 118.847
59.95000 138.686
60.12000 140.665
60.29000 128.770
60.46000 136.541
60.63000 140.667
60.80000 132.061
60.97000 133.657
61.14000 132.043
61.31000 150.835
61.48000 145.183
61.65000 356.016
61.82000 244.125
61.99000 152.196
62.16000 156.707
62.33000 152.253
62.50000 138.091
62.67000 143.908
62.84000 147.867
63.01000 148.235
63.18000 148.159
63.35000 147.021
63.52000 152.598
63.69000 155.297
63.86000 152.531
64.03000 161.418
64.20000 174.883
64.37000 183.977
64.54000 181.586
64.71000 181.527
64.88000 204.917
65.05000 229.182
65.22000 284.639
65.39000 366.997
65.56000 431.416
65.73000 967.369
65.90000 1633.690
66.07000 493.993
66.24000 400.597
66.41000 612.697
66.58000 427.148
66.75000 387.966
66.92000 418.519
67.09000 438.288
67.26000 458.051
67.43000 500.212
67.60000 543.883
67.77000 573.266
67.94000 646.797
68.11000 678.601
68.28000 776.399
68.45000 918.654
68.62000 1414.024
68.79000 2868.766
68.96000 22928.908
69.13000 91507.047
69.30000 52182.973
69.47000 11698.942
69.64000 1645.384
69.81000 1064.868
69.98000 797.485
70.00000 802.231

File: BTO_Mapping_Theta2Theta_25-09-2025_001_34_-9-781_-2-079.xy
20.00000 560.757
20.17000 546.918
20.34000 555.060
20.51000 556.170
20.68000 552.738
20.85000 549.170
21.02000 554.607
21.19000 539.019
21.36000 550.775
21.53000 554.069
21.70000 575.151
21.87000 620.519
22.04000 706.178
22.21000 653.612
22.38000 591.762
22.55000 550.521
22.72000 515.313
22.89000 524.051
23.06000 506.973
23.23000 508.619
23.40000 496.929
23.57000 501.613
23.74000 498.698
23.91000 484.298
24.08000 489.609
24.25000 493.145
24.42000 487.263
24.59000 486.694
24.76000 474.926
24.93000 470.327
25.10000 472.626
25.27000 472.841
25.44000 463.508
25.61000 470.940
25.78000 458.039
25.95000 452.452
26.12000 455.347
26.29000 446.639
26.46000 434.672
26.63000 437.078
26.80000 445.763
26.97000 429.568
27.14000 434.198
27.31000 429.840
27.48000 425.151
27.65000 427.499
27.82000 429.742
27.99000 403.508
28.16000 431.295
28.33000 423.290
28.50000 418.773
28.67000 408.571
28.84000 427.174
29.01000 409.093
29.18000 413.663
29.35000 421.592
29.52000 421.334
29.69000 400.522
29.86000 406.066
30.03000 424.664
30.20000 410.021
30.37000 426.201
30.54000 399.723
30.71000 418.058
30.88000 437.582
31.05000 622.314
31.22000 1362.313
31.39000 2075.777
31.56000 1313.484
31.73000 644.947
31.90000 459.713
32.07000 406.946
32.24000 396.067
32.41000 397.990
32.58000 372.751
32.75000 371.729
32.92000 388.567
33.09000 346.960
33.26000 345.876
33.43000 341.362
33.60000 343.696
33.77000 327.579
33.94000 327.966
34.11000 335.423
34.28000 309.759
34.45000 334.462
34.62000 314.006
34.79000 330.443
34.96000 305.921
35.13000 302.966
35.30000 307.235
35.47000 301.991
35.64000 299.863
35.81000 296.273
35.98000 309.941
36.15000 304.506
36.32000 293.589
36.49000 294.867
36.66000 300.979
36.83000 296.668
37.00000 287.493
37.17000 301.355
37.34000 294.583
37.51000 289.209
37.68000 281.441
37.85000 283.125
38.02000 291.983
38.19000 311.364
38.36000 319.366
38.53000 510.111
38.70000 697.730
38.87000 544.946
39.04000 332.910
39.21000 288.167
39.38000 266.943
39.55000 256.604
39.72000 268.034
39.89000 259.913
40.06000 251.979
40.23000 281.330
40.40000 249.449
40.57000 249.895
40.74000 252.925
40.91000 240.003
41.08000 236.785
41.25000 244.956
41.42000 230.748
41.59000 245.075
41.76000 231.299
41.93000 239.642
42.10000 230.325
42.27000 226.214
42.44000 231.662
42.61000 225.734
42.78000 227.352
42.95000 228.239
43.12000 228.916
43.29000 231.896
43.46000 223.628
43.63000 224.239
43.80000 218.286
43.97000 219.589
44.14000 223.693
44.31000 224.412
44.48000 229.585
44.65000 231.257
44.82000 274.139
44.99000 313.290
45.16000 319.091
45.33000 291.663
45.50000 280.070
45.67000 249.071
45.84000 230.707
46.01000 220.099
46.18000 218.559
46.35000 217.079
46.52000 196.208
46.69000 200.479
46.86000 199.258
47.03000 201.072
47.20000 190.024
47.37000 191.531
47.54000 190.795
47.71000 187.568
47.88000 189.893
48.05000 188.175
48.22000 195.736
48.39000 182.597
48.56000 172.712
48.73000 174.113
48.90000 178.244
49.07000 177.086
49.24000 170.426
49.41000 166.219
49.58000 169.603
49.75000 159.975
49.92000 187.759
50.09000 175.523
50.26000 176.420
50.43000 199.967
50.60000 223.289
50.77000 208.690
50.94000 190.108
51.11000 174.958
51.28000 184.213
51.45000 177.244
51.62000 158.253
51.79000 153.318
51.96000 164.171
52.13000 159.300
52.30000 158.152
52.47000 150.442
52.64000 157.473
52.81000 154.662
52.98000 159.770
53.15000 151.485
53.32000 148.278
53.49000 163.273
53.66000 151.249
53.83000 157.921
54.00000 157.712
54.17000 143.921
54.34000 153.060
54.51000 151.880
54.68000 152.144
54.85000 151.276
55.02000 153.100
55.19000 153.211
55.36000 175.992
55.53000 207.486
55.70000 298.652
55.87000 416.487
56.04000 380.650
56.21000 278.689
56.38000 197.347
56.55000 168.812
56.72000 147.114
56.89000 149.321
57.06000 148.767
57.23000 144.650
57.40000 138.389
57.57000 139.608
57.74000 138.572
57.91000 133.745
58.08000 136.149
58.25000 143.724
58.42000 135.690
58.59000 132.891
58.76000 136.022
58.93000 129.706
59.10000 129.364
59.27000 138.419
59.44000 129.478
59.61000 127.389
59.78000 134.678
59.95000 137.639
60.12000 145.145
60.29000 130.639
60.46000 132.190
60.63000 130.713
60.80000 131.582
60.97000 127.674
61.14000 131.943
61.31000 135.546
61.48000 147.998
61.65000 279.160
61.82000 192.315
61.99000 148.271
62.16000 128.939
62.33000 141.850
62.50000 150.199
62.67000 138.167
62.84000 145.486
63.01000 140.570
63.18000 146.411
63.35000 146.862
63.52000 144.638
63.69000 141.552
63.86000 156.617
64.03000 162.053
64.20000 161.220
64.37000 166.372
64.54000 169.919
64.71000 183.663
64.88000 186.806
65.05000 197.895
65.22000 240.044
65.39000 266.134
65.56000 318.301
65.73000 676.952
65.90000 1156.996
66.07000 409.710
66.24000 338.427
66.41000 478.323
66.58000 358.317
66.75000 326.171
66.92000 345.254
67.09000 361.683
67.26000 394.112
67.43000 442.000
67.60000 460.392
67.77000 482.400
67.94000 511.481
68.11000 603.773
68.28000 638.857
68.45000 772.766
68.62000 1110.194
68.79000 2084.770
68.96000 14072.942
69.13000 60520.418
69.30000 34951.453
69.47000 8154.153
69.64000 1298.530
69.81000 841.314
69.98000 676.659
70.00000 680.420

File: BTO_Mapping_Theta2Theta_25-09-2025_001_36_-29-344_-6-237.xy
20.00000 577.263
20.17000 559.456
20.34000 549.482
20.51000 549.361
20.68000 559.325
20.85000 535.667
21.02000 548.182
21.19000 550.563
21.36000 569.893
21.53000 550.678
21.70000 600.212
21.87000 788.355
22.04000 864.274
22.21000 701.105
22.38000 610.750
22.55000 535.788
22.72000 521.557
22.89000 497.915
23.06000 517.871
23.23000 498.927
23.40000 510.155
23.57000 507.833
23.74000 501.692
23.91000 501.831
24.08000 495.045
24.25000 474.961
24.42000 483.562
24.59000 484.912
24.76000 466.576
24.93000 466.372
25.10000 464.712
25.27000 475.303
25.44000 466.355
25.61000 480.116
25.78000 460.094
25.95000 450.169
26.12000 441.254
26.29000 456.664
26.46000 461.826
26.63000 451.769
26.80000 428.416
26.97000 434.267
27.14000 426.444
27.31000 436.520
27.48000 449.477
27.65000 432.683
27.82000 433.957
27.99000 433.375
28.16000 435.143
28.33000 418.035
28.50000 424.584
28.67000 408.636
28.84000 408.418
29.01000 426.231
29.18000 406.164
29.35000 423.401
29.52000 405.585
29.69000 420.039
29.86000 421.843
30.03000 434.806
30.20000 421.286
30.37000 421.897
30.54000 407.964
30.71000 454.501
30.88000 486.614
31.05000 827.697
31.22000 1994.370
31.39000 2690.206
31.56000 1476.661
31.73000 751.276
31.90000 476.718
32.07000 404.989
32.24000 395.434
32.41000 381.125
32.58000 374.748
32.75000 388.772
32.92000 394.711
33.09000 371.803
33.26000 338.550
33.43000 335.097
33.60000 339.582
33.77000 343.965
33.94000 325.366
34.11000 314.913
34.28000 320.744
34.45000 322.888
34.62000 314.243
34.79000 327.609
34.96000 319.544
35.13000 317.978
35.30000 302.925
35.47000 300.391
35.64000 323.183
35.81000 314.386
35.98000 305.144
36.15000 297.465
36.32000 291.315
36.49000 302.462
36.66000 303.056
36.83000 303.891
37.00000 286.047
37.17000 296.312
37.34000 281.814
37.51000 277.193
37.68000 287.734
37.85000 285.996
38.02000 277.574
38.19000 290.034
38.36000 333.668
38.53000 455.248
38.70000 502.155
38.87000 377.662
39.04000 299.335
39.21000 267.496
39.38000 264.348
39.55000 265.830
39.72000 264.402
39.89000 269.105
40.06000 269.515
40.23000 241.796
40.40000 254.237
40.57000 238.754
40.74000 249.439
40.91000 247.266
41.08000 239.583
41.25000 246.131
41.42000 239.244
41.59000 245.014
41.76000 236.763
41.93000 241.828
42.10000 221.798
42.27000 230.448
42.44000 228.250
42.61000 217.398
42.78000 223.158
42.95000 233.695
43.12000 226.584
43.29000 225.390
43.46000 232.932
43.63000 226.500
43.80000 215.401
43.97000 212.911
44.14000 216.066
44.31000 226.108
44.48000 271.611
44.65000 319.521
44.82000 425.632
44.99000 452.029
45.16000 408.615
45.33000 337.662
45.50000 274.390
45.67000 238.639
45.84000 234.322
46.01000 206.495
46.18000 217.353
46.35000 202.374
46.52000 204.134
46.69000 201.412
46.86000 193.155
47.03000 193.519
47.20000 186.177
47.37000 194.687
47.54000 180.631
47.71000 181.605
47.88000 187.484
48.05000 201.001
48.22000 185.201
48.39000 179.413
48.56000 183.488
48.73000 185.529
48.90000 184.453
49.07000 179.139
49.24000 183.961
49.41000 180.218
49.58000 185.079
49.75000 182.990
49.92000 179.657
50.09000 177.565
50.26000 193.268
50.43000 223.612
50.60000 235.647
50.77000 226.007
50.94000 199.034
51.11000 187.048
51.28000 176.241
51.45000 172.125
51.62000 162.843
51.79000 162.907
51.96000 150.343
52.13000 166.255
52.30000 144.413
52.47000 153.377
52.64000 160.051
52.81000 163.415
52.98000 161.685
53.15000 154.291
53.32000 161.087
53.49000 155.137
53.66000 158.670
53.83000 151.687
54.00000 158.040
54.17000 149.156
54.34000 155.217
54.51000 153.060
54.68000 149.470
54.85000 160.089
55.02000 152.646
55.19000 158.508
55.36000 176.778
55.53000 231.905
55.70000 342.109
55.87000 382.303
56.04000 342.419
56.21000 249.190
56.38000 196.002
56.55000 171.094
56.72000 154.813
56.89000 147.343
57.06000 142.596
57.23000 152.026
57.40000 151.463
57.57000 135.987
57.74000 140.720
57.91000 142.000
58.08000 146.744
58.25000 137.619
58.42000 134.128
58.59000 130.760
58.76000 147.963
58.93000 133.945
59.10000 122.554
59.27000 133.327
59.44000 128.505
59.61000 136.367
59.78000 129.839
59.95000 137.210
60.12000 159.718
60.29000 129.054
60.46000 133.012
60.63000 136.186
60.80000 127.254
60.97000 135.841
61.14000 129.423
61.31000 141.021
61.48000 152.731
61.65000 358.026
61.82000 233.658
61.99000 139.575
62.16000 140.176
62.33000 147.462
62.50000 141.633
62.67000 145.134
62.84000 151.608
63.01000 151.099
63.18000 147.585
63.35000 150.200
63.52000 152.648
63.69000 161.576
63.86000 152.613
64.03000 162.687
64.20000 158.507
64.37000 171.441
64.54000 170.137
64.71000 176.300
64.88000 203.330
65.05000 215.473
65.22000 270.669
65.39000 322.945
65.56000 386.646
65.73000 916.333
65.90000 1626.402
66.07000 487.100
66.24000 399.429
66.41000 609.424
66.58000 448.867
66.75000 404.705
66.92000 379.521
67.09000 410.605
67.26000 462.814
67.43000 491.254
67.60000 532.437
67.77000 556.223
67.94000 637.311
68.11000 652.929
68.28000 745.949
68.45000 938.581
68.62000 1370.656
68.79000 2808.634
68.96000 22000.660
69.13000 88786.844
69.30000 50888.316
69.47000 11520.781
69.64000 1592.164
69.81000 1042.395
69.98000 791.215
70.00000 779.654

File: BTO_Mapping_Theta2Theta_25-09-2025_001_37_-39-126_-8-316.xy
20.00000 544.999
20.17000 557.824
20.34000 553.630
20.51000 541.992
20.68000 544.903
20.85000 550.552
21.02000 566.208
21.19000 542.977
21.36000 537.483
21.53000 552.593
21.70000 624.637
21.87000 863.545
22.04000 984.572
22.21000 733.787
22.38000 598.218
22.55000 529.444
22.72000 520.019
22.89000 512.352
23.06000 519.740
23.23000 497.103
23.40000 501.782
23.57000 506.110
23.74000 477.646
23.91000 494.902
24.08000 481.068
24.25000 496.401
24.42000 488.896
24.59000 489.157
24.76000 478.851
24.93000 466.927
25.10000 457.062
25.27000 467.630
25.44000 465.172
25.61000 460.987
25.78000 466.361
25.95000 469.134
26.12000 448.021
26.29000 462.376
26.46000 459.111
26.63000 440.690
26.80000 458.789
26.97000 447.607
27.14000 453.877
27.31000 426.975
27.48000 420.764
27.65000 440.811
27.82000 414.999
27.99000 415.082
28.16000 433.971
28.33000 438.520
28.50000 440.060
28.67000 407.823
28.84000 411.963
29.01000 429.763
29.18000 398.143
29.35000 409.241
29.52000 407.713
29.69000 408.086
29.86000 431.657
30.03000 441.297
30.20000 439.118
30.37000 427.744
30.54000 434.100
30.71000 445.489
30.88000 511.441
31.05000 948.252
31.22000 2698.957
31.39000 2834.816
31.56000 1246.533
31.73000 646.009
31.90000 456.777
32.07000 416.888
32.24000 391.114
32.41000 400.546
32.58000 394.730
32.75000 389.690
32.92000 395.896
33.09000 360.374
33.26000 352.209
33.43000 342.831
33.60000 341.334
33.77000 335.942
33.94000 321.231
34.11000 326.965
34.28000 325.719
34.45000 323.426
34.62000 324.412
34.79000 334.074
34.96000 322.523
35.13000 320.853
35.30000 299.471
35.47000 321.822
35.64000 306.595
35.81000 306.870
35.98000 301.413
36.15000 281.336
36.32000 294.035
36.49000 297.458
36.66000 313.215
36.83000 300.809
37.00000 294.895
37.17000 297.318
37.34000 293.848
37.51000 293.824
37.68000 290.768
37.85000 293.156
38.02000 298.590
38.19000 304.138
38.36000 347.903
38.53000 456.830
38.70000 478.045
38.87000 346.096
39.04000 282.717
39.21000 275.829
39.38000 266.503
39.55000 260.109
39.72000 264.310
39.89000 264.240
40.06000 254.762
40.23000 255.978
40.40000 256.568
40.57000 262.283
40.74000 247.573
40.91000 247.083
41.08000 241.308
41.25000 239.512
41.42000 244.366
41.59000 239.800
41.76000 238.238
41.93000 238.527
42.10000 254.306
42.27000 229.710
42.44000 228.394
42.61000 230.641
42.78000 244.888
42.95000 237.007
43.12000 221.874
43.29000 229.500
43.46000 232.812
43.63000 237.299
43.80000 230.518
43.97000 222.075
44.14000 240.472
44.31000 237.854
44.48000 257.764
44.65000 376.847
44.82000 525.665
44.99000 544.513
45.16000 462.293
45.33000 324.013
45.50000 284.440
45.67000 254.269
45.84000 234.916
46.01000 213.354
46.18000 219.466
46.35000 231.197
46.52000 201.930
46.69000 192.107
46.86000 194.278
47.03000 195.634
47.20000 187.248
47.37000 180.917
47.54000 183.413
47.71000 190.519
47.88000 198.845
48.05000 181.405
48.22000 190.202
48.39000 199.190
48.56000 186.749
48.73000 186.955
48.90000 174.377
49.07000 180.050
49.24000 183.635
49.41000 172.296
49.58000 175.248
49.75000 173.830
49.92000 178.245
50.09000 181.814
50.26000 194.233
50.43000 227.981
50.60000 247.898
50.77000 226.282
50.94000 206.627
51.11000 194.600
51.28000 166.248
51.45000 178.862
51.62000 157.804
51.79000 157.075
51.96000 169.997
52.13000 156.662
52.30000 166.642
52.47000 155.261
52.64000 142.831
52.81000 150.227
52.98000 158.711
53.15000 165.765
53.32000 160.913
53.49000 158.974
53.66000 159.638
53.83000 155.197
54.00000 156.811
54.17000 148.629
54.34000 142.726
54.51000 152.361
54.68000 145.215
54.85000 155.237
55.02000 159.109
55.19000 167.157
55.36000 189.596
55.53000 240.484
55.70000 356.497
55.87000 400.515
56.04000 320.394
56.21000 246.403
56.38000 188.431
56.55000 170.227
56.72000 151.230
56.89000 150.619
57.06000 140.120
57.23000 144.714
57.40000 150.164
57.57000 145.734
57.74000 150.601
57.91000 140.241
58.08000 147.563
58.25000 136.448
58.42000 149.794
58.59000 136.006
58.76000 140.774
58.93000 155.206
59.10000 137.568
59.27000 134.705
59.44000 131.448
59.61000 129.398
59.78000 139.120
59.95000 124.750
60.12000 122.538
60.29000 129.160
60.46000 113.971
60.63000 130.350
60.80000 138.459
60.97000 133.863
61.14000 142.123
61.31000 143.397
61.48000 151.344
61.65000 331.747
61.82000 220.044
61.99000 148.671
62.16000 153.494
62.33000 139.088
62.50000 151.224
62.67000 149.255
62.84000 150.503
63.01000 147.316
63.18000 150.470
63.35000 157.053
63.52000 147.560
63.69000 149.642
63.86000 149.957
64.03000 154.704
64.20000 165.440
64.37000 179.094
64.54000 172.167
64.71000 183.458
64.88000 204.232
65.05000 255.452
65.22000 313.778
65.39000 385.753
65.56000 384.479
65.73000 858.477
65.90000 1494.658
66.07000 456.740
66.24000 378.278
66.41000 551.010
66.58000 420.550
66.75000 370.024
66.92000 381.439
67.09000 418.750
67.26000 448.804
67.43000 467.783
67.60000 502.349
67.77000 540.022
67.94000 606.914
68.11000 644.159
68.28000 719.090
68.45000 857.356
68.62000 1311.880
68.79000 2527.701
68.96000 19299.777
69.13000 81661.375
69.30000 46531.859
69.47000 10649.860
69.64000 1540.852
69.81000 988.444
69.98000 760.937
70.00000 749.921

File: BTO_Mapping_Theta2Theta_25-09-2025_001_39_-16-180_-11-756.xy
20.00000 546.323
20.17000 538.707
20.34000 558.472
20.51000 559.027
20.68000 546.529
20.85000 530.783
21.02000 528.309
21.19000 553.914
21.36000 541.768
21.53000 562.885
21.70000 588.491
21.87000 700.012
22.04000 791.602
22.21000 698.401
22.38000 612.413
22.55000 547.997
22.72000 527.564
22.89000 544.521
23.06000 500.690
23.23000 505.721
23.40000 504.243
23.57000 509.428
23.74000 486.449
23.91000 479.627
24.08000 478.840
24.25000 486.256
24.42000 500.419
24.59000 451.112
24.76000 472.094
24.93000 480.773
25.10000 485.827
25.27000 450.389
25.44000 460.333
25.61000 467.623
25.78000 474.926
25.95000 466.427
26.12000 448.542
26.29000 434.783
26.46000 441.083
26.63000 461.058
26.80000 440.388
26.97000 433.781
27.14000 431.409
27.31000 432.670
27.48000 435.578
27.65000 422.703
27.82000 433.836
27.99000 417.032
28.16000 419.607
28.33000 421.600
28.50000 408.822
28.67000 415.616
28.84000 400.223
29.01000 405.797
29.18000 392.273
29.35000 408.671
29.52000 387.472
29.69000 405.905
29.86000 422.407
30.03000 431.684
30.20000 415.646
30.37000 400.656
30.54000 433.025
30.71000 446.475
30.88000 474.685
31.05000 706.580
31.22000 1638.511
31.39000 2305.844
31.56000 1389.529
31.73000 715.119
31.90000 463.409
32.07000 403.810
32.24000 387.577
32.41000 382.977
32.58000 359.924
32.75000 379.530
32.92000 374.279
33.09000 362.529
33.26000 340.979
33.43000 341.474
33.60000 345.095
33.77000 331.000
33.94000 326.083
34.11000 320.778
34.28000 330.248
34.45000 328.123
34.62000 314.591
34.79000 330.311
34.96000 313.224
35.13000 317.903
35.30000 296.766
35.47000 307.815
35.64000 295.364
35.81000 313.868
35.98000 302.692
36.15000 307.502
36.32000 291.766
36.49000 297.988
36.66000 279.029
36.83000 295.167
37.00000 278.252
37.17000 282.018
37.34000 290.222
37.51000 265.403
37.68000 283.211
37.85000 294.997
38.02000 285.560
38.19000 286.674
38.36000 339.319
38.53000 461.278
38.70000 555.111
38.87000 437.607
39.04000 304.403
39.21000 270.409
39.38000 269.159
39.55000 263.034
39.72000 263.827
39.89000 251.502
40.06000 247.821
40.23000 245.073
40.40000 249.367
40.57000 262.464
40.74000 250.874
40.91000 250.002
41.08000 233.495
41.25000 251.093
41.42000 242.741
41.59000 244.119
41.76000 218.913
41.93000 232.981
42.10000 233.183
42.27000 226.471
42.44000 230.953
42.61000 235.125
42.78000 221.308
42.95000 214.144
43.12000 219.122
43.29000 225.216
43.46000 211.270
43.63000 218.235
43.80000 225.835
43.97000 240.116
44.14000 219.407
44.31000 228.706
44.48000 241.056
44.65000 266.546
44.82000 356.313
44.99000 391.185
45.16000 357.387
45.33000 319.270
45.50000 290.527
45.67000 226.922
45.84000 235.066
46.01000 215.048
46.18000 213.891
46.35000 204.042
46.52000 205.721
46.69000 197.348
46.86000 202.517
47.03000 202.026
47.20000 188.731
47.37000 190.926
47.54000 184.323
47.71000 180.439
47.88000 178.808
48.05000 162.137
48.22000 175.356
48.39000 182.198
48.56000 174.581
48.73000 183.518
48.90000 186.471
49.07000 175.649
49.24000 185.540
49.41000 163.227
49.58000 188.932
49.75000 177.391
49.92000 174.431
50.09000 177.633
50.26000 192.155
50.43000 197.144
50.60000 225.980
50.77000 223.446
50.94000 199.754
51.11000 167.724
51.28000 177.516
51.45000 163.487
51.62000 165.901
51.79000 158.837
51.96000 156.121
52.13000 166.204
52.30000 156.032
52.47000 152.818
52.64000 148.501
52.81000 152.387
52.98000 163.359
53.15000 163.115
53.32000 158.261
53.49000 162.349
53.66000 152.256
53.83000 158.452
54.00000 165.057
54.17000 152.816
54.34000 153.797
54.51000 158.286
54.68000 150.699
54.85000 156.625
55.02000 168.252
55.19000 167.259
55.36000 170.318
55.53000 225.844
55.70000 331.238
55.87000 385.914
56.04000 354.672
56.21000 261.835
56.38000 202.088
56.55000 166.216
56.72000 156.903
56.89000 147.417
57.06000 147.131
57.23000 141.889
57.40000 139.932
57.57000 137.870
57.74000 132.699
57.91000 133.678
58.08000 142.164
58.25000 135.709
58.42000 137.741
58.59000 143.422
58.76000 127.182
58.93000 139.306
59.10000 142.010
59.27000 133.942
59.44000 130.502
59.61000 133.439
59.78000 129.040
59.95000 131.081
60.12000 130.137
60.29000 141.844
60.46000 125.585
60.63000 134.611
60.80000 135.006
60.97000 143.406
61.14000 136.834
61.31000 131.602
61.48000 145.895
61.65000 304.327
61.82000 208.591
61.99000 140.919
62.16000 140.963
62.33000 144.013
62.50000 147.813
62.67000 148.922
62.84000 143.810
63.01000 145.165
63.18000 141.176
63.35000 147.102
63.52000 146.953
63.69000 147.761
63.86000 160.193
64.03000 160.180
64.20000 169.097
64.37000 165.044
64.54000 177.013
64.71000 175.183
64.88000 182.374
65.05000 200.048
65.22000 255.630
65.39000 297.435
65.56000 341.711
65.73000 751.367
65.90000 1328.028
66.07000 429.867
66.24000 375.302
66.41000 515.712
66.58000 385.160
66.75000 349.229
66.92000 354.043
67.09000 389.154
67.26000 429.855
67.43000 438.727
67.60000 489.844
67.77000 525.142
67.94000 556.649
68.11000 642.867
68.28000 701.983
68.45000 831.606
68.62000 1222.252
68.79000 2341.299
68.96000 17173.156
69.13000 70758.133
69.30000 40864.211
69.47000 9493.806
69.64000 1397.483
69.81000 912.821
69.98000 714.432
70.00000 708.925