Folder: Master-Thesis/XRD/XRD/XRR 27-10-2025/XY Data

File: XRR_Trial_1_0-000_0-000.xy
0.30000 354528.813
0.30440 351467.313
0.30880 344455.375
0.31320 340581.219
0.31760 339473.813
0.32200 338376.000
0.32640 333821.906
0.33080 325157.125
0.33520 321535.469
0.33960 317258.125
0.34400 313167.813
0.34840 308925.156
0.35280 301775.125
0.35720 299967.781
0.36160 290993.688
0.36600 289465.688
0.37040 283500.469
0.37480 274026.688
0.37920 275043.594
0.38360 268365.375
0.38800 263392.813
0.39240 253963.797
0.39680 251218.734
0.40120 243503.219
0.40560 238994.234
0.41000 235513.656
0.41440 227220.672
0.41880 223682.141
0.42320 215265.500
0.42760 209747.109
0.43200 205329.297
0.43640 196256.266
0.44080 192750.813
0.44520 183176.359
0.44960 180568.656
0.45400 173675.938
0.45840 164266.578
0.46280 161404.250
0.46720 152609.563
0.47160 147030.234
0.47600 141152.594
0.48040 132238.703
0.48480 127791.281
0.48920 120528.773
0.49360 114146.234
0.49800 107532.672
0.50240 101347.273
0.50680 94642.281
0.51120 88101.688
0.51560 83087.602
0.52000 76990.023
0.52440 70839.680
0.52880 64792.875
0.53320 58286.863
0.53760 53209.355
0.54200 48060.977
0.54640 43414.973
0.55080 37845.355
0.55520 33175.430
0.55960 28347.783
0.56400 24741.064
0.56840 20852.600
0.57280 17169.297
0.57720 14512.643
0.58160 11321.109
0.58600 8678.589
0.59040 6765.740
0.59480 4967.485
0.59920 3682.264
0.60360 2722.077
0.60800 1747.806
0.61240 1243.628
0.61680 743.870
0.62120 482.586
0.62560 315.339
0.63000 177.999
0.63440 123.063
0.63880 81.127
0.64320 55.150
0.64760 44.279
0.65200 25.183
0.65640 22.245
0.66080 17.091
0.66520 16.148
0.66960 12.905
0.67400 15.268
0.67840 17.051
0.68280 6.034
0.68720 8.960
0.69160 10.002
0.69600 5.970
0.70040 6.115
0.70480 8.061
0.70920 8.008
0.71360 5.045
0.71800 11.094
0.72240 9.945
0.72680 6.983
0.73120 1.992
0.73560 4.067
0.74000 3.031
0.74440 2.971
0.74880 6.979
0.75320 3.089
0.75760 5.089
0.76200 1.957
0.76640 3.004
0.77080 4.923
0.77520 4.001
0.77960 8.037
0.78400 6.037
0.78840 0.973
0.79280 1.066
0.79720 2.035
0.80160 4.922
0.80600 0.000
0.81040 1.966
0.81480 4.023
0.81920 0.000
0.82360 1.015
0.82800 1.993
0.83240 2.078
0.83680 2.998
0.84120 0.000
0.84560 3.010
0.85000 3.002
0.85440 2.995
0.85880 6.017
0.86320 4.023
0.86760 0.983
0.87200 4.035
0.87640 2.954
0.88080 0.000
0.88520 0.997
0.88960 1.008
0.89400 1.014
0.89840 1.005
0.90280 0.000
0.90720 2.963
0.91160 0.000
0.91600 0.978
0.92040 0.000
0.92480 0.984
0.92920 0.988
0.93360 0.997
0.93800 3.065
0.94240 1.045
0.94680 0.000
0.95120 1.040
0.95560 3.100
0.96000 0.000
0.96440 0.989
0.96880 1.004
0.97320 2.012
0.97760 0.000
0.98200 2.035
0.98640 0.000
0.99080 0.988
0.99520 0.978
0.99960 0.977
1.00400 1.969
1.00840 0.962
1.01280 0.000
1.01720 0.000
1.02160 0.000
1.02600 0.000
1.03040 1.025
1.03480 0.000
1.03920 0.976
1.04360 0.000
1.04800 0.976
1.05240 0.000
1.05680 0.000
1.06120 0.988
1.06560 1.999
1.07000 0.994
1.07440 0.000
1.07880 0.969
1.08320 0.000
1.08760 0.000
1.09200 0.969
1.09640 1.012
1.10080 1.020
1.10520 1.008
1.10960 0.998
1.11400 0.000
1.11840 0.000
1.12280 0.000
1.12720 1.007
1.13160 1.985
1.13600 0.000
1.14040 0.997
1.14480 0.000
1.14920 0.000
1.15360 0.000
1.15800 0.000
1.16240 2.053
1.16680 2.001
1.17120 0.000
1.17560 0.000
1.18000 0.000
1.18440 0.000
1.18880 1.004
1.19320 0.000
1.19760 0.000
1.20200 0.000
1.20640 0.969
1.21080 0.969
1.21520 0.000
1.21960 0.000
1.22400 0.000
1.22840 1.057
1.23280 0.000
1.23720 0.000
1.24160 0.000
1.24600 1.001
1.25040 0.000
1.25480 1.055
1.25920 0.000
1.26360 0.000
1.26800 0.000
1.27240 0.000
1.27680 0.000
1.28120 1.030
1.28560 0.000
1.29000 0.976
1.29440 0.000
1.29880 0.000
1.30320 0.000
1.30760 0.000
1.31200 0.000
1.31640 1.011
1.32080 0.992
1.32520 0.978
1.32960 0.000
1.33400 0.000
1.33840 0.000
1.34280 0.998
1.34720 1.957
1.35160 1.066
1.35600 0.000
1.36040 0.000
1.36480 0.000
1.36920 0.000
1.37360 0.000
1.37800 0.000
1.38240 0.000
1.38680 0.000
1.39120 0.000
1.39560 2.035
1.40000 0.000
1.40440 0.000
1.40880 0.000
1.41320 0.000
1.41760 0.000
1.42200 0.000
1.42640 0.000
1.43080 0.000
1.43520 0.000
1.43960 0.997
1.44400 0.000
1.44840 0.000
1.45280 1.020
1.45720 2.073
1.46160 1.001
1.46600 0.000
1.47040 0.000
1.47480 0.000
1.47920 0.000
1.48360 0.000
1.48800 0.000
1.49240 0.000
1.49680 1.000
1.50000 0.000