Folder: Master-Thesis/XRD/30-09-2025 Dep 1/XY Data

File: BTO_fwhm_results.csv
X Coordinates,Y Coordinates,FWHM
-39.126,-8.316,0.312815
-39.126,8.316,0.320906
-32.361,-23.511,0.305779
-32.361,23.511,0.336952
-29.344,-6.237,0.306433
-29.344,6.237,0.313984
-24.271,-17.634,0.301793
-24.271,17.634,0.322332
-20.0,-34.641,0.308685
-20.0,34.641,0.350504
-19.563,-4.158,0.301413
-19.563,4.158,0.315311
-16.18,-11.756,0.30642
-16.18,11.756,0.307068
-15.0,-25.981,0.308451
-15.0,25.981,0.331831
-10.0,-17.321,0.310156
-10.0,17.321,0.314868
-9.781,-2.079,0.310643
-9.781,2.079,0.306925
-8.09,-5.878,0.307076
-8.09,5.878,0.310093
-5.0,-8.66,0.30838
-5.0,8.66,0.309171
-4.181,-39.781,0.328712
-4.181,39.781,0.341194
-3.136,-29.836,0.315286
-3.136,29.836,0.32395
-2.091,-19.89,0.311924
-2.091,19.89,0.315098
-1.045,-9.945,0.307793
-1.045,9.945,0.305762
0.0,0.0,0.307307
3.09,-9.511,0.309585
3.09,9.511,0.306114
6.18,-19.021,0.305647
6.18,19.021,0.315607
6.691,-7.431,0.307183
6.691,7.431,0.303805
9.135,-4.067,0.307156
9.135,4.067,0.306441
9.271,-28.532,0.326282
9.271,28.532,0.322237
10.0,0.0,0.309101
12.361,-38.042,0.319131
12.361,38.042,0.338458
13.383,-14.863,0.309884
13.383,14.863,0.314081
18.271,-8.135,0.312394
18.271,8.135,0.306854
20.0,0.0,0.306199
20.074,-22.294,0.32041
20.074,22.294,0.317355
26.765,-29.726,0.326202
26.765,29.726,0.319184
27.406,-12.202,0.309315
27.406,12.202,0.310956
30.0,0.0,0.311019
36.542,-16.269,0.307814
36.542,16.269,0.310605
40.0,0.0,0.313303

File: BTO_Mapping_Theta2Theta_30-09-2025_001_05_40-000_0-000.xy
20.00000 567.986
20.17000 589.496
20.34000 569.457
20.51000 564.489
20.68000 559.160
20.85000 562.762
21.02000 547.756
21.19000 566.166
21.36000 556.157
21.53000 556.078
21.70000 587.072
21.87000 674.148
22.04000 804.293
22.21000 655.577
22.38000 560.834
22.55000 542.237
22.72000 531.634
22.89000 516.670
23.06000 518.211
23.23000 521.615
23.40000 517.142
23.57000 504.019
23.74000 507.202
23.91000 498.723
24.08000 485.482
24.25000 498.459
24.42000 502.122
24.59000 472.695
24.76000 474.564
24.93000 497.801
25.10000 473.411
25.27000 494.873
25.44000 468.998
25.61000 478.401
25.78000 462.144
25.95000 455.689
26.12000 464.949
26.29000 445.465
26.46000 449.797
26.63000 465.002
26.80000 437.896
26.97000 428.012
27.14000 470.158
27.31000 442.838
27.48000 449.504
27.65000 440.922
27.82000 431.607
27.99000 443.230
28.16000 444.235
28.33000 448.105
28.50000 433.126
28.67000 426.707
28.84000 419.438
29.01000 445.628
29.18000 409.417
29.35000 429.644
29.52000 414.979
29.69000 411.702
29.86000 436.133
30.03000 454.661
30.20000 437.092
30.37000 449.468
30.54000 450.585
30.71000 451.974
30.88000 505.794
31.05000 760.736
31.22000 2470.925
31.39000 4166.696
31.56000 1764.363
31.73000 579.133
31.90000 445.756
32.07000 409.767
32.24000 407.185
32.41000 392.094
32.58000 380.930
32.75000 387.262
32.92000 451.696
33.09000 420.844
33.26000 358.795
33.43000 359.203
33.60000 354.686
33.77000 341.483
33.94000 337.062
34.11000 333.092
34.28000 326.377
34.45000 338.169
34.62000 324.390
34.79000 314.810
34.96000 329.196
35.13000 315.746
35.30000 312.313
35.47000 320.642
35.64000 324.395
35.81000 321.540
35.98000 298.484
36.15000 304.544
36.32000 308.244
36.49000 295.474
36.66000 298.592
36.83000 304.081
37.00000 305.855
37.17000 303.513
37.34000 305.545
37.51000 286.245
37.68000 304.145
37.85000 287.279
38.02000 311.332
38.19000 297.044
38.36000 334.436
38.53000 499.768
38.70000 801.533
38.87000 576.198
39.04000 326.412
39.21000 287.336
39.38000 280.285
39.55000 273.993
39.72000 280.929
39.89000 270.788
40.06000 264.047
40.23000 254.548
40.40000 259.610
40.57000 261.253
40.74000 255.669
40.91000 252.356
41.08000 254.520
41.25000 256.163
41.42000 246.566
41.59000 238.479
41.76000 237.118
41.93000 250.390
42.10000 224.874
42.27000 233.855
42.44000 227.142
42.61000 226.479
42.78000 237.382
42.95000 223.669
43.12000 213.631
43.29000 235.048
43.46000 221.774
43.63000 228.064
43.80000 209.908
43.97000 229.058
44.14000 225.599
44.31000 228.954
44.48000 228.292
44.65000 239.200
44.82000 294.207
44.99000 404.926
45.16000 386.425
45.33000 295.621
45.50000 240.000
45.67000 212.261
45.84000 220.789
46.01000 215.462
46.18000 214.311
46.35000 206.182
46.52000 215.138
46.69000 201.658
46.86000 201.266
47.03000 207.718
47.20000 186.873
47.37000 190.507
47.54000 193.492
47.71000 196.753
47.88000 183.889
48.05000 190.076
48.22000 194.870
48.39000 180.013
48.56000 185.059
48.73000 177.888
48.90000 180.624
49.07000 181.379
49.24000 176.906
49.41000 183.350
49.58000 179.839
49.75000 167.434
49.92000 177.413
50.09000 179.032
50.26000 197.345
50.43000 198.781
50.60000 269.919
50.77000 276.394
50.94000 224.987
51.11000 184.064
51.28000 177.541
51.45000 176.710
51.62000 150.719
51.79000 159.257
51.96000 160.475
52.13000 160.955
52.30000 158.514
52.47000 168.816
52.64000 156.793
52.81000 159.495
52.98000 151.584
53.15000 161.909
53.32000 172.994
53.49000 165.001
53.66000 158.451
53.83000 159.004
54.00000 160.316
54.17000 155.934
54.34000 158.097
54.51000 161.667
54.68000 161.064
54.85000 154.603
55.02000 150.872
55.19000 160.871
55.36000 171.029
55.53000 202.602
55.70000 353.598
55.87000 637.011
56.04000 600.283
56.21000 325.922
56.38000 189.711
56.55000 153.717
56.72000 159.072
56.89000 154.459
57.06000 136.807
57.23000 151.705
57.40000 142.838
57.57000 152.156
57.74000 141.081
57.91000 148.472
58.08000 143.804
58.25000 150.077
58.42000 136.516
58.59000 140.212
58.76000 137.624
58.93000 143.536
59.10000 139.467
59.27000 131.451
59.44000 130.205
59.61000 142.676
59.78000 144.542
59.95000 135.810
60.12000 132.722
60.29000 132.879
60.46000 138.876
60.63000 134.113
60.80000 143.872
60.97000 132.993
61.14000 146.494
61.31000 143.366
61.48000 145.842
61.65000 303.387
61.82000 202.243
61.99000 141.677
62.16000 138.360
62.33000 129.773
62.50000 151.928
62.67000 142.302
62.84000 147.646
63.01000 144.200
63.18000 153.493
63.35000 142.592
63.52000 146.962
63.69000 154.596
63.86000 150.482
64.03000 171.177
64.20000 162.851
64.37000 172.294
64.54000 167.262
64.71000 177.531
64.88000 186.121
65.05000 215.243
65.22000 266.453
65.39000 359.922
65.56000 471.633
65.73000 940.510
65.90000 1320.780
66.07000 395.563
66.24000 350.750
66.41000 507.407
66.58000 360.193
66.75000 328.853
66.92000 358.485
67.09000 392.777
67.26000 404.248
67.43000 458.819
67.60000 480.163
67.77000 513.119
67.94000 560.700
68.11000 609.053
68.28000 687.628
68.45000 825.749
68.62000 1284.569
68.79000 2393.537
68.96000 23546.605
69.13000 78186.805
69.30000 43397.242
69.47000 8179.525
69.64000 1402.234
69.81000 938.035
69.98000 782.140
70.00000 761.590

File: BTO_Mapping_Theta2Theta_30-09-2025_001_06_9-135_4-067.xy
20.00000 574.631
20.17000 563.096
20.34000 549.528
20.51000 572.143
20.68000 567.706
20.85000 554.815
21.02000 557.152
21.19000 565.410
21.36000 561.100
21.53000 531.637
21.70000 552.139
21.87000 684.906
22.04000 812.666
22.21000 664.588
22.38000 564.828
22.55000 527.836
22.72000 532.839
22.89000 522.369
23.06000 505.898
23.23000 524.836
23.40000 507.298
23.57000 523.920
23.74000 516.506
23.91000 527.619
24.08000 536.099
24.25000 512.530
24.42000 493.819
24.59000 502.510
24.76000 495.056
24.93000 488.198
25.10000 506.176
25.27000 487.456
25.44000 471.011
25.61000 461.389
25.78000 471.037
25.95000 473.545
26.12000 455.456
26.29000 459.716
26.46000 462.785
26.63000 462.725
26.80000 442.018
26.97000 454.063
27.14000 454.815
27.31000 453.478
27.48000 459.331
27.65000 459.792
27.82000 432.085
27.99000 464.353
28.16000 439.602
28.33000 443.169
28.50000 434.762
28.67000 423.702
28.84000 432.526
29.01000 421.448
29.18000 445.269
29.35000 419.383
29.52000 422.808
29.69000 410.612
29.86000 451.125
30.03000 467.100
30.20000 436.373
30.37000 424.219
30.54000 438.667
30.71000 454.671
30.88000 481.272
31.05000 704.677
31.22000 2052.050
31.39000 3644.619
31.56000 1606.334
31.73000 569.964
31.90000 451.104
32.07000 401.690
32.24000 403.112
32.41000 390.365
32.58000 368.044
32.75000 367.469
32.92000 418.789
33.09000 427.725
33.26000 358.119
33.43000 351.865
33.60000 347.972
33.77000 335.849
33.94000 332.394
34.11000 346.825
34.28000 340.854
34.45000 328.996
34.62000 334.743
34.79000 328.140
34.96000 326.491
35.13000 326.121
35.30000 306.485
35.47000 317.337
35.64000 314.586
35.81000 297.505
35.98000 308.475
36.15000 310.579
36.32000 298.424
36.49000 293.387
36.66000 298.750
36.83000 300.845
37.00000 310.924
37.17000 306.637
37.34000 292.911
37.51000 300.016
37.68000 304.072
37.85000 287.102
38.02000 291.455
38.19000 304.831
38.36000 329.232
38.53000 512.784
38.70000 838.364
38.87000 583.000
39.04000 341.064
39.21000 282.817
39.38000 289.397
39.55000 268.011
39.72000 273.491
39.89000 262.817
40.06000 269.723
40.23000 257.000
40.40000 251.524
40.57000 254.118
40.74000 251.673
40.91000 247.640
41.08000 247.836
41.25000 255.885
41.42000 250.887
41.59000 244.902
41.76000 238.024
41.93000 241.736
42.10000 230.210
42.27000 241.416
42.44000 227.628
42.61000 227.640
42.78000 231.961
42.95000 237.941
43.12000 227.111
43.29000 220.880
43.46000 230.057
43.63000 233.379
43.80000 210.817
43.97000 213.093
44.14000 232.056
44.31000 227.719
44.48000 227.122
44.65000 240.946
44.82000 288.849
44.99000 416.408
45.16000 425.259
45.33000 290.311
45.50000 228.132
45.67000 223.635
45.84000 211.875
46.01000 207.248
46.18000 209.466
46.35000 207.718
46.52000 210.633
46.69000 220.640
46.86000 186.539
47.03000 197.008
47.20000 188.634
47.37000 200.445
47.54000 199.379
47.71000 192.976
47.88000 189.313
48.05000 177.908
48.22000 181.399
48.39000 181.470
48.56000 191.982
48.73000 178.868
48.90000 174.252
49.07000 178.515
49.24000 179.249
49.41000 184.636
49.58000 176.173
49.75000 178.484
49.92000 180.181
50.09000 184.372
50.26000 180.635
50.43000 211.422
50.60000 263.284
50.77000 272.912
50.94000 223.256
51.11000 175.259
51.28000 167.914
51.45000 165.276
51.62000 163.895
51.79000 162.425
51.96000 170.767
52.13000 156.037
52.30000 157.748
52.47000 163.601
52.64000 154.317
52.81000 158.494
52.98000 161.587
53.15000 164.586
53.32000 158.802
53.49000 167.442
53.66000 159.327
53.83000 165.449
54.00000 147.993
54.17000 156.693
54.34000 157.040
54.51000 174.589
54.68000 162.423
54.85000 151.490
55.02000 168.262
55.19000 171.289
55.36000 169.682
55.53000 201.368
55.70000 339.910
55.87000 637.504
56.04000 582.622
56.21000 312.054
56.38000 187.430
56.55000 165.667
56.72000 156.208
56.89000 153.626
57.06000 147.723
57.23000 149.561
57.40000 143.196
57.57000 151.906
57.74000 147.832
57.91000 145.796
58.08000 136.464
58.25000 139.786
58.42000 137.849
58.59000 135.860
58.76000 135.928
58.93000 141.982
59.10000 132.132
59.27000 133.449
59.44000 131.378
59.61000 142.818
59.78000 139.092
59.95000 133.044
60.12000 132.372
60.29000 131.162
60.46000 132.332
60.63000 130.869
60.80000 127.975
60.97000 135.467
61.14000 133.570
61.31000 134.020
61.48000 158.963
61.65000 298.318
61.82000 202.788
61.99000 145.608
62.16000 138.162
62.33000 136.068
62.50000 149.279
62.67000 139.252
62.84000 138.705
63.01000 150.055
63.18000 158.431
63.35000 144.881
63.52000 155.783
63.69000 154.507
63.86000 167.651
64.03000 168.105
64.20000 164.831
64.37000 166.432
64.54000 173.471
64.71000 169.178
64.88000 175.414
65.05000 203.633
65.22000 235.105
65.39000 328.890
65.56000 429.014
65.73000 721.927
65.90000 1254.524
66.07000 372.359
66.24000 330.434
66.41000 482.721
66.58000 352.593
66.75000 328.201
66.92000 339.217
67.09000 368.742
67.26000 405.167
67.43000 442.676
67.60000 456.286
67.77000 492.732
67.94000 546.996
68.11000 613.870
68.28000 664.432
68.45000 769.971
68.62000 1124.513
68.79000 2144.748
68.96000 15383.353
69.13000 71128.367
69.30000 41693.406
69.47000 9469.149
69.64000 1383.624
69.81000 931.743
69.98000 761.670
70.00000 731.888

File: BTO_Mapping_Theta2Theta_30-09-2025_001_07_18-271_8-135.xy
20.00000 568.164
20.17000 567.672
20.34000 572.436
20.51000 571.521
20.68000 554.095
20.85000 578.573
21.02000 550.535
21.19000 540.857
21.36000 561.631
21.53000 572.311
21.70000 563.619
21.87000 664.401
22.04000 751.707
22.21000 657.845
22.38000 570.667
22.55000 530.720
22.72000 528.760
22.89000 537.455
23.06000 525.516
23.23000 513.147
23.40000 510.288
23.57000 492.194
23.74000 502.326
23.91000 523.306
24.08000 533.185
24.25000 529.870
24.42000 496.368
24.59000 491.147
24.76000 470.207
24.93000 473.776
25.10000 472.800
25.27000 475.192
25.44000 474.456
25.61000 472.518
25.78000 467.907
25.95000 454.163
26.12000 470.689
26.29000 442.637
26.46000 456.317
26.63000 450.670
26.80000 462.965
26.97000 448.570
27.14000 448.846
27.31000 452.977
27.48000 446.381
27.65000 428.536
27.82000 456.542
27.99000 425.750
28.16000 419.062
28.33000 440.201
28.50000 426.992
28.67000 421.434
28.84000 425.271
29.01000 424.315
29.18000 426.651
29.35000 419.164
29.52000 413.232
29.69000 414.842
29.86000 417.449
30.03000 464.023
30.20000 439.317
30.37000 441.408
30.54000 440.383
30.71000 427.336
30.88000 470.953
31.05000 661.104
31.22000 2030.387
31.39000 3703.915
31.56000 1649.919
31.73000 558.791
31.90000 446.842
32.07000 408.830
32.24000 412.525
32.41000 403.144
32.58000 379.484
32.75000 364.150
32.92000 419.782
33.09000 399.896
33.26000 350.208
33.43000 356.379
33.60000 346.413
33.77000 345.538
33.94000 351.606
34.11000 338.110
34.28000 341.905
34.45000 328.197
34.62000 334.762
34.79000 326.155
34.96000 318.005
35.13000 318.362
35.30000 330.226
35.47000 309.920
35.64000 321.837
35.81000 303.173
35.98000 301.342
36.15000 306.926
36.32000 314.827
36.49000 295.144
36.66000 290.767
36.83000 294.615
37.00000 298.845
37.17000 295.205
37.34000 295.296
37.51000 278.753
37.68000 282.129
37.85000 293.312
38.02000 300.223
38.19000 310.782
38.36000 326.269
38.53000 505.596
38.70000 895.893
38.87000 635.057
39.04000 358.940
39.21000 284.744
39.38000 273.686
39.55000 285.651
39.72000 259.605
39.89000 254.538
40.06000 251.963
40.23000 268.717
40.40000 237.756
40.57000 249.079
40.74000 255.738
40.91000 247.421
41.08000 246.812
41.25000 240.938
41.42000 254.759
41.59000 250.551
41.76000 243.671
41.93000 235.590
42.10000 240.678
42.27000 248.129
42.44000 232.369
42.61000 241.200
42.78000 240.609
42.95000 231.964
43.12000 223.183
43.29000 238.576
43.46000 237.483
43.63000 235.510
43.80000 232.633
43.97000 223.580
44.14000 222.185
44.31000 233.543
44.48000 216.737
44.65000 244.774
44.82000 279.048
44.99000 382.460
45.16000 417.767
45.33000 283.208
45.50000 232.383
45.67000 226.502
45.84000 210.867
46.01000 210.996
46.18000 209.959
46.35000 204.262
46.52000 211.058
46.69000 202.502
46.86000 199.582
47.03000 196.853
47.20000 202.037
47.37000 195.228
47.54000 195.236
47.71000 178.529
47.88000 189.411
48.05000 187.837
48.22000 195.399
48.39000 199.424
48.56000 188.497
48.73000 187.788
48.90000 188.029
49.07000 177.244
49.24000 189.959
49.41000 181.527
49.58000 177.804
49.75000 174.148
49.92000 182.984
50.09000 176.517
50.26000 190.533
50.43000 204.473
50.60000 251.236
50.77000 269.390
50.94000 199.541
51.11000 180.899
51.28000 171.247
51.45000 162.652
51.62000 154.777
51.79000 171.336
51.96000 161.992
52.13000 172.544
52.30000 159.499
52.47000 168.775
52.64000 158.536
52.81000 163.722
52.98000 151.585
53.15000 152.761
53.32000 163.685
53.49000 164.415
53.66000 160.846
53.83000 154.161
54.00000 161.238
54.17000 153.526
54.34000 153.743
54.51000 142.051
54.68000 144.987
54.85000 145.109
55.02000 169.891
55.19000 161.262
55.36000 166.998
55.53000 204.754
55.70000 324.178
55.87000 602.335
56.04000 593.277
56.21000 319.403
56.38000 188.960
56.55000 167.993
56.72000 158.169
56.89000 154.980
57.06000 150.405
57.23000 152.610
57.40000 143.991
57.57000 142.282
57.74000 157.134
57.91000 137.209
58.08000 149.501
58.25000 138.861
58.42000 139.605
58.59000 134.332
58.76000 139.816
58.93000 138.595
59.10000 130.588
59.27000 140.982
59.44000 144.429
59.61000 136.921
59.78000 131.392
59.95000 145.562
60.12000 125.880
60.29000 132.731
60.46000 126.751
60.63000 129.255
60.80000 131.889
60.97000 133.287
61.14000 143.494
61.31000 148.326
61.48000 138.504
61.65000 285.837
61.82000 200.174
61.99000 146.602
62.16000 142.048
62.33000 138.657
62.50000 150.523
62.67000 156.761
62.84000 142.460
63.01000 147.248
63.18000 145.015
63.35000 143.652
63.52000 157.929
63.69000 154.332
63.86000 157.151
64.03000 151.024
64.20000 156.512
64.37000 174.174
64.54000 175.360
64.71000 186.347
64.88000 181.969
65.05000 209.758
65.22000 249.126
65.39000 338.834
65.56000 416.182
65.73000 788.105
65.90000 1205.237
66.07000 387.040
66.24000 322.905
66.41000 464.230
66.58000 344.949
66.75000 325.691
66.92000 341.879
67.09000 368.532
67.26000 396.232
67.43000 399.676
67.60000 453.296
67.77000 485.127
67.94000 526.792
68.11000 590.604
68.28000 668.930
68.45000 764.616
68.62000 1146.586
68.79000 2129.337
68.96000 16116.968
69.13000 68033.438
69.30000 39043.109
69.47000 8100.873
69.64000 1317.501
69.81000 895.765
69.98000 720.642
70.00000 732.219

File: BTO_Mapping_Theta2Theta_30-09-2025_001_09_36-542_16-269.xy
20.00000 605.223
20.17000 558.975
20.34000 572.842
20.51000 561.326
20.68000 553.875
20.85000 551.927
21.02000 554.956
21.19000 544.709
21.36000 538.220
21.53000 569.299
21.70000 567.724
21.87000 590.523
22.04000 679.333
22.21000 637.022
22.38000 560.818
22.55000 530.773
22.72000 509.320
22.89000 536.556
23.06000 504.101
23.23000 498.217
23.40000 526.320
23.57000 501.527
23.74000 506.915
23.91000 510.249
24.08000 512.296
24.25000 494.060
24.42000 492.756
24.59000 510.934
24.76000 502.723
24.93000 468.102
25.10000 484.896
25.27000 473.197
25.44000 453.198
25.61000 469.529
25.78000 478.158
25.95000 448.272
26.12000 463.632
26.29000 467.942
26.46000 455.319
26.63000 447.929
26.80000 464.857
26.97000 426.498
27.14000 428.250
27.31000 446.538
27.48000 446.935
27.65000 450.844
27.82000 439.542
27.99000 442.422
28.16000 420.491
28.33000 419.188
28.50000 428.004
28.67000 416.342
28.84000 413.705
29.01000 425.258
29.18000 413.394
29.35000 405.856
29.52000 404.365
29.69000 417.716
29.86000 429.449
30.03000 442.539
30.20000 435.921
30.37000 414.601
30.54000 411.914
30.71000 439.770
30.88000 448.695
31.05000 656.150
31.22000 1775.137
31.39000 3512.105
31.56000 1765.308
31.73000 570.090
31.90000 439.978
32.07000 423.468
32.24000 405.514
32.41000 387.669
32.58000 390.658
32.75000 371.701
32.92000 396.317
33.09000 409.127
33.26000 342.759
33.43000 348.033
33.60000 336.844
33.77000 351.795
33.94000 340.629
34.11000 333.081
34.28000 358.523
34.45000 354.599
34.62000 325.620
34.79000 330.827
34.96000 329.018
35.13000 318.104
35.30000 306.076
35.47000 322.191
35.64000 311.095
35.81000 303.929
35.98000 314.395
36.15000 289.485
36.32000 298.196
36.49000 292.388
36.66000 299.498
36.83000 295.048
37.00000 310.239
37.17000 310.862
37.34000 290.347
37.51000 286.438
37.68000 287.248
37.85000 288.672
38.02000 294.811
38.19000 314.097
38.36000 337.405
38.53000 500.257
38.70000 935.532
38.87000 703.504
39.04000 344.420
39.21000 293.420
39.38000 284.285
39.55000 257.895
39.72000 281.763
39.89000 265.758
40.06000 258.540
40.23000 268.835
40.40000 246.979
40.57000 273.324
40.74000 232.220
40.91000 256.402
41.08000 247.380
41.25000 246.230
41.42000 237.046
41.59000 234.631
41.76000 232.147
41.93000 258.014
42.10000 234.579
42.27000 234.504
42.44000 244.060
42.61000 240.331
42.78000 220.419
42.95000 232.132
43.12000 231.239
43.29000 211.209
43.46000 233.350
43.63000 220.911
43.80000 240.828
43.97000 231.338
44.14000 220.146
44.31000 225.758
44.48000 228.081
44.65000 229.718
44.82000 259.410
44.99000 296.044
45.16000 329.564
45.33000 293.447
45.50000 243.765
45.67000 227.639
45.84000 209.073
46.01000 205.350
46.18000 205.549
46.35000 197.861
46.52000 199.909
46.69000 202.785
46.86000 188.780
47.03000 192.301
47.20000 201.105
47.37000 195.072
47.54000 188.253
47.71000 198.480
47.88000 181.797
48.05000 189.801
48.22000 193.386
48.39000 169.582
48.56000 177.251
48.73000 190.255
48.90000 188.351
49.07000 179.702
49.24000 175.240
49.41000 180.375
49.58000 169.460
49.75000 181.653
49.92000 176.887
50.09000 173.953
50.26000 192.918
50.43000 201.863
50.60000 239.733
50.77000 263.782
50.94000 210.890
51.11000 189.238
51.28000 168.148
51.45000 164.953
51.62000 163.845
51.79000 161.633
51.96000 164.577
52.13000 161.313
52.30000 162.272
52.47000 157.637
52.64000 153.320
52.81000 144.134
52.98000 149.112
53.15000 153.372
53.32000 162.089
53.49000 159.923
53.66000 158.670
53.83000 154.258
54.00000 156.440
54.17000 153.314
54.34000 154.706
54.51000 155.170
54.68000 155.052
54.85000 160.130
55.02000 152.309
55.19000 152.988
55.36000 178.209
55.53000 204.083
55.70000 297.870
55.87000 571.009
56.04000 629.808
56.21000 367.156
56.38000 198.839
56.55000 184.164
56.72000 163.411
56.89000 155.625
57.06000 155.989
57.23000 137.044
57.40000 142.785
57.57000 152.366
57.74000 150.861
57.91000 136.883
58.08000 138.542
58.25000 143.147
58.42000 132.875
58.59000 140.597
58.76000 141.053
58.93000 134.735
59.10000 138.150
59.27000 146.139
59.44000 145.740
59.61000 133.759
59.78000 134.773
59.95000 133.180
60.12000 143.724
60.29000 133.050
60.46000 132.515
60.63000 128.959
60.80000 137.228
60.97000 131.222
61.14000 142.717
61.31000 139.110
61.48000 146.557
61.65000 285.237
61.82000 186.539
61.99000 131.018
62.16000 142.468
62.33000 136.163
62.50000 152.019
62.67000 147.046
62.84000 131.375
63.01000 151.015
63.18000 144.493
63.35000 145.474
63.52000 153.121
63.69000 154.916
63.86000 154.226
64.03000 148.420
64.20000 165.016
64.37000 171.574
64.54000 168.718
64.71000 186.597
64.88000 183.327
65.05000 196.157
65.22000 238.159
65.39000 319.529
65.56000 427.639
65.73000 754.435
65.90000 1113.167
66.07000 357.414
66.24000 306.398
66.41000 431.107
66.58000 346.436
66.75000 312.617
66.92000 322.253
67.09000 351.495
67.26000 396.849
67.43000 404.886
67.60000 437.503
67.77000 468.099
67.94000 499.326
68.11000 571.633
68.28000 619.804
68.45000 732.322
68.62000 1055.012
68.79000 1932.151
68.96000 15912.563
69.13000 60776.738
69.30000 33746.680
69.47000 6694.573
69.64000 1249.718
69.81000 864.669
69.98000 688.814
70.00000 675.095