Folder: Master-Thesis/XRD/30-09-2025 Dep 1/XY Data (part 5)

File: BTO_Mapping_Theta2Theta_30-09-2025_001_44_-15-000_-25-981.xy
20.00000 557.560
20.17000 575.583
20.34000 562.188
20.51000 555.774
20.68000 562.109
20.85000 557.827
21.02000 545.490
21.19000 555.214
21.36000 547.724
21.53000 559.545
21.70000 573.086
21.87000 746.044
22.04000 916.059
22.21000 673.856
22.38000 552.639
22.55000 553.806
22.72000 543.660
22.89000 505.231
23.06000 518.790
23.23000 497.958
23.40000 513.283
23.57000 503.443
23.74000 499.127
23.91000 512.081
24.08000 503.338
24.25000 490.193
24.42000 514.711
24.59000 521.591
24.76000 490.415
24.93000 508.214
25.10000 479.145
25.27000 486.823
25.44000 486.071
25.61000 481.096
25.78000 486.380
25.95000 469.945
26.12000 450.411
26.29000 468.531
26.46000 468.870
26.63000 439.519
26.80000 473.755
26.97000 459.352
27.14000 445.129
27.31000 450.888
27.48000 439.053
27.65000 439.458
27.82000 437.602
27.99000 448.655
28.16000 452.248
28.33000 442.601
28.50000 439.130
28.67000 431.378
28.84000 419.949
29.01000 433.674
29.18000 437.253
29.35000 451.504
29.52000 400.452
29.69000 463.833
29.86000 435.446
30.03000 478.932
30.20000 466.279
30.37000 435.471
30.54000 466.951
30.71000 472.198
30.88000 514.557
31.05000 774.195
31.22000 2564.497
31.39000 4054.322
31.56000 1518.069
31.73000 557.781
31.90000 429.244
32.07000 431.690
32.24000 404.814
32.41000 391.423
32.58000 384.429
32.75000 380.218
32.92000 418.587
33.09000 473.886
33.26000 387.226
33.43000 357.908
33.60000 361.253
33.77000 347.082
33.94000 355.828
34.11000 348.334
34.28000 345.097
34.45000 334.575
34.62000 338.200
34.79000 315.927
34.96000 331.522
35.13000 322.380
35.30000 336.394
35.47000 305.462
35.64000 321.555
35.81000 298.414
35.98000 315.036
36.15000 309.270
36.32000 301.692
36.49000 301.716
36.66000 318.745
36.83000 312.706
37.00000 304.923
37.17000 313.614
37.34000 296.407
37.51000 287.592
37.68000 300.040
37.85000 290.401
38.02000 298.259
38.19000 299.019
38.36000 346.585
38.53000 444.845
38.70000 606.880
38.87000 429.225
39.04000 320.642
39.21000 299.256
39.38000 271.419
39.55000 273.127
39.72000 270.908
39.89000 273.602
40.06000 263.839
40.23000 265.620
40.40000 255.530
40.57000 253.332
40.74000 247.451
40.91000 256.502
41.08000 257.045
41.25000 251.982
41.42000 253.272
41.59000 241.210
41.76000 250.403
41.93000 244.580
42.10000 226.259
42.27000 249.753
42.44000 225.796
42.61000 235.712
42.78000 234.330
42.95000 237.690
43.12000 227.559
43.29000 238.448
43.46000 218.404
43.63000 234.644
43.80000 234.440
43.97000 241.521
44.14000 228.392
44.31000 229.437
44.48000 236.788
44.65000 251.199
44.82000 397.353
44.99000 536.675
45.16000 441.574
45.33000 304.639
45.50000 240.125
45.67000 227.390
45.84000 220.067
46.01000 217.120
46.18000 225.018
46.35000 216.146
46.52000 210.913
46.69000 202.214
46.86000 206.806
47.03000 189.497
47.20000 194.893
47.37000 195.398
47.54000 196.355
47.71000 197.142
47.88000 192.903
48.05000 191.337
48.22000 188.535
48.39000 179.338
48.56000 190.526
48.73000 176.551
48.90000 182.923
49.07000 186.066
49.24000 188.681
49.41000 191.766
49.58000 174.333
49.75000 166.054
49.92000 177.908
50.09000 192.733
50.26000 195.936
50.43000 226.473
50.60000 292.218
50.77000 282.745
50.94000 214.340
51.11000 187.864
51.28000 166.153
51.45000 174.915
51.62000 175.745
51.79000 166.125
51.96000 168.637
52.13000 172.316
52.30000 159.335
52.47000 164.542
52.64000 166.407
52.81000 168.151
52.98000 166.221
53.15000 167.282
53.32000 159.701
53.49000 168.064
53.66000 164.678
53.83000 155.221
54.00000 155.366
54.17000 162.480
54.34000 162.199
54.51000 151.004
54.68000 151.688
54.85000 165.986
55.02000 158.063
55.19000 167.412
55.36000 192.587
55.53000 235.716
55.70000 435.133
55.87000 666.812
56.04000 505.491
56.21000 252.906
56.38000 183.283
56.55000 156.219
56.72000 140.268
56.89000 142.313
57.06000 146.163
57.23000 155.767
57.40000 138.911
57.57000 140.933
57.74000 147.328
57.91000 145.524
58.08000 142.602
58.25000 139.957
58.42000 140.159
58.59000 147.873
58.76000 137.737
58.93000 139.055
59.10000 128.230
59.27000 121.021
59.44000 138.902
59.61000 134.330
59.78000 134.570
59.95000 133.789
60.12000 135.707
60.29000 134.060
60.46000 124.861
60.63000 130.243
60.80000 140.269
60.97000 140.488
61.14000 136.780
61.31000 140.976
61.48000 150.887
61.65000 310.064
61.82000 240.829
61.99000 151.034
62.16000 147.964
62.33000 139.427
62.50000 141.079
62.67000 146.269
62.84000 149.369
63.01000 145.919
63.18000 151.682
63.35000 143.509
63.52000 149.809
63.69000 158.057
63.86000 159.607
64.03000 157.744
64.20000 174.434
64.37000 166.712
64.54000 171.133
64.71000 182.146
64.88000 188.333
65.05000 222.403
65.22000 275.968
65.39000 402.788
65.56000 462.803
65.73000 738.744
65.90000 1407.036
66.07000 459.650
66.24000 358.644
66.41000 518.381
66.58000 389.363
66.75000 346.070
66.92000 349.050
67.09000 388.066
67.26000 390.001
67.43000 457.803
67.60000 497.413
67.77000 511.211
67.94000 561.112
68.11000 630.824
68.28000 725.797
68.45000 834.300
68.62000 1165.508
68.79000 2299.581
68.96000 14777.214
69.13000 81804.188
69.30000 52528.844
69.47000 14298.938
69.64000 1630.421
69.81000 1012.917
69.98000 811.655
70.00000 798.597

File: BTO_Mapping_Theta2Theta_30-09-2025_001_46_-1-045_-9-945.xy
20.00000 555.645
20.17000 554.305
20.34000 568.926
20.51000 546.157
20.68000 549.350
20.85000 565.488
21.02000 569.937
21.19000 545.285
21.36000 565.847
21.53000 578.622
21.70000 584.531
21.87000 714.401
22.04000 907.117
22.21000 706.390
22.38000 567.956
22.55000 542.104
22.72000 530.652
22.89000 534.348
23.06000 518.176
23.23000 511.474
23.40000 520.598
23.57000 496.863
23.74000 510.340
23.91000 513.855
24.08000 516.932
24.25000 495.045
24.42000 507.689
24.59000 493.946
24.76000 480.834
24.93000 484.988
25.10000 483.454
25.27000 485.704
25.44000 469.903
25.61000 483.341
25.78000 482.827
25.95000 484.751
26.12000 454.078
26.29000 477.602
26.46000 474.849
26.63000 444.626
26.80000 454.662
26.97000 468.118
27.14000 449.318
27.31000 438.976
27.48000 439.966
27.65000 456.988
27.82000 429.546
27.99000 433.076
28.16000 437.836
28.33000 451.478
28.50000 427.347
28.67000 433.611
28.84000 430.355
29.01000 412.511
29.18000 432.188
29.35000 417.576
29.52000 426.865
29.69000 419.100
29.86000 448.645
30.03000 474.365
30.20000 449.828
30.37000 451.462
30.54000 462.777
30.71000 460.896
30.88000 503.697
31.05000 739.686
31.22000 2363.251
31.39000 3837.967
31.56000 1562.530
31.73000 558.807
31.90000 455.862
32.07000 432.422
32.24000 407.109
32.41000 395.732
32.58000 402.571
32.75000 384.420
32.92000 458.078
33.09000 444.008
33.26000 366.440
33.43000 354.996
33.60000 334.745
33.77000 340.635
33.94000 346.294
34.11000 322.316
34.28000 341.557
34.45000 325.282
34.62000 324.034
34.79000 324.159
34.96000 305.898
35.13000 325.028
35.30000 318.699
35.47000 307.091
35.64000 293.470
35.81000 311.489
35.98000 307.808
36.15000 306.924
36.32000 297.665
36.49000 304.540
36.66000 304.743
36.83000 297.847
37.00000 325.040
37.17000 299.807
37.34000 308.026
37.51000 298.710
37.68000 304.714
37.85000 304.106
38.02000 297.125
38.19000 322.608
38.36000 339.636
38.53000 509.831
38.70000 705.760
38.87000 497.471
39.04000 326.247
39.21000 289.967
39.38000 275.127
39.55000 269.629
39.72000 278.670
39.89000 268.142
40.06000 271.778
40.23000 247.255
40.40000 252.234
40.57000 260.334
40.74000 262.114
40.91000 247.830
41.08000 254.535
41.25000 248.246
41.42000 247.748
41.59000 245.997
41.76000 251.715
41.93000 236.781
42.10000 244.195
42.27000 235.336
42.44000 238.727
42.61000 242.844
42.78000 239.491
42.95000 237.742
43.12000 225.372
43.29000 222.144
43.46000 250.382
43.63000 231.183
43.80000 233.976
43.97000 233.695
44.14000 231.665
44.31000 224.785
44.48000 241.423
44.65000 261.599
44.82000 351.155
44.99000 534.846
45.16000 462.207
45.33000 266.261
45.50000 244.941
45.67000 221.136
45.84000 218.925
46.01000 221.821
46.18000 208.305
46.35000 211.330
46.52000 200.388
46.69000 204.347
46.86000 216.442
47.03000 194.099
47.20000 197.864
47.37000 198.155
47.54000 199.755
47.71000 192.730
47.88000 185.601
48.05000 195.056
48.22000 189.431
48.39000 186.807
48.56000 179.578
48.73000 180.829
48.90000 174.459
49.07000 185.913
49.24000 180.222
49.41000 173.275
49.58000 185.636
49.75000 191.483
49.92000 172.009
50.09000 183.333
50.26000 177.555
50.43000 235.166
50.60000 276.951
50.77000 277.589
50.94000 207.707
51.11000 189.325
51.28000 167.012
51.45000 173.281
51.62000 170.342
51.79000 167.634
51.96000 164.324
52.13000 161.214
52.30000 164.441
52.47000 170.796
52.64000 158.537
52.81000 153.696
52.98000 163.480
53.15000 165.751
53.32000 158.533
53.49000 164.572
53.66000 154.908
53.83000 161.873
54.00000 160.956
54.17000 151.864
54.34000 154.628
54.51000 167.231
54.68000 177.338
54.85000 153.786
55.02000 157.742
55.19000 167.244
55.36000 178.109
55.53000 221.077
55.70000 387.463
55.87000 647.497
56.04000 525.983
56.21000 268.468
56.38000 182.459
56.55000 179.780
56.72000 145.002
56.89000 149.393
57.06000 153.099
57.23000 144.936
57.40000 140.263
57.57000 145.640
57.74000 150.158
57.91000 141.446
58.08000 148.984
58.25000 139.368
58.42000 140.468
58.59000 142.310
58.76000 134.945
58.93000 135.209
59.10000 130.595
59.27000 137.340
59.44000 134.312
59.61000 138.246
59.78000 144.197
59.95000 140.134
60.12000 134.162
60.29000 129.614
60.46000 138.204
60.63000 136.946
60.80000 137.694
60.97000 129.638
61.14000 137.663
61.31000 136.265
61.48000 148.498
61.65000 313.340
61.82000 228.728
61.99000 149.982
62.16000 149.184
62.33000 138.375
62.50000 153.086
62.67000 141.257
62.84000 141.473
63.01000 154.809
63.18000 152.573
63.35000 145.877
63.52000 153.193
63.69000 152.772
63.86000 167.165
64.03000 157.649
64.20000 185.790
64.37000 173.980
64.54000 158.555
64.71000 180.911
64.88000 195.199
65.05000 210.532
65.22000 270.605
65.39000 381.511
65.56000 459.312
65.73000 780.278
65.90000 1327.829
66.07000 410.277
66.24000 347.898
66.41000 502.884
66.58000 374.678
66.75000 335.946
66.92000 362.573
67.09000 387.201
67.26000 390.868
67.43000 453.000
67.60000 479.029
67.77000 515.912
67.94000 560.842
68.11000 627.059
68.28000 691.922
68.45000 818.773
68.62000 1165.333
68.79000 2280.581
68.96000 15923.754
69.13000 77966.539
69.30000 46851.031
69.47000 11398.364
69.64000 1520.373
69.81000 961.339
69.98000 793.140
70.00000 765.569

File: BTO_Mapping_Theta2Theta_30-09-2025_001_48_-3-136_-29-836.xy
20.00000 578.604
20.17000 605.135
20.34000 551.376
20.51000 558.948
20.68000 577.582
20.85000 551.898
21.02000 574.291
21.19000 573.908
21.36000 567.427
21.53000 566.669
21.70000 675.752
21.87000 936.182
22.04000 1010.236
22.21000 673.947
22.38000 590.356
22.55000 569.364
22.72000 549.693
22.89000 516.971
23.06000 513.639
23.23000 518.327
23.40000 510.365
23.57000 526.355
23.74000 515.807
23.91000 494.519
24.08000 513.486
24.25000 514.005
24.42000 498.439
24.59000 481.868
24.76000 491.787
24.93000 484.624
25.10000 457.788
25.27000 482.040
25.44000 481.261
25.61000 473.464
25.78000 484.662
25.95000 457.756
26.12000 464.467
26.29000 480.200
26.46000 455.788
26.63000 474.044
26.80000 468.913
26.97000 465.341
27.14000 454.406
27.31000 468.339
27.48000 458.482
27.65000 469.591
27.82000 447.261
27.99000 440.329
28.16000 455.901
28.33000 457.760
28.50000 455.800
28.67000 450.843
28.84000 444.979
29.01000 443.860
29.18000 444.287
29.35000 438.920
29.52000 440.709
29.69000 434.456
29.86000 467.338
30.03000 479.083
30.20000 463.293
30.37000 447.179
30.54000 452.144
30.71000 490.523
30.88000 565.234
31.05000 1241.421
31.22000 3649.385
31.39000 3060.715
31.56000 932.873
31.73000 532.876
31.90000 463.352
32.07000 424.828
32.24000 407.565
32.41000 387.821
32.58000 406.480
32.75000 376.206
32.92000 446.243
33.09000 474.430
33.26000 377.622
33.43000 365.672
33.60000 345.541
33.77000 337.587
33.94000 329.472
34.11000 365.793
34.28000 337.889
34.45000 323.440
34.62000 333.073
34.79000 334.586
34.96000 332.355
35.13000 333.278
35.30000 317.596
35.47000 327.174
35.64000 324.733
35.81000 317.707
35.98000 289.596
36.15000 319.508
36.32000 304.477
36.49000 312.013
36.66000 299.819
36.83000 298.162
37.00000 307.724
37.17000 297.405
37.34000 304.255
37.51000 297.290
37.68000 304.181
37.85000 307.441
38.02000 302.473
38.19000 314.136
38.36000 380.792
38.53000 487.942
38.70000 480.039
38.87000 356.815
39.04000 279.910
39.21000 280.641
39.38000 281.881
39.55000 276.400
39.72000 266.152
39.89000 276.837
40.06000 266.641
40.23000 266.170
40.40000 276.818
40.57000 256.569
40.74000 264.635
40.91000 248.685
41.08000 251.146
41.25000 250.178
41.42000 253.680
41.59000 245.500
41.76000 248.033
41.93000 253.518
42.10000 244.794
42.27000 241.250
42.44000 255.912
42.61000 245.988
42.78000 240.952
42.95000 234.003
43.12000 234.776
43.29000 250.647
43.46000 225.620
43.63000 230.911
43.80000 228.204
43.97000 248.495
44.14000 233.887
44.31000 243.165
44.48000 262.731
44.65000 374.886
44.82000 616.486
44.99000 647.827
45.16000 415.938
45.33000 307.097
45.50000 239.314
45.67000 237.899
45.84000 229.276
46.01000 218.121
46.18000 216.782
46.35000 215.342
46.52000 210.375
46.69000 204.842
46.86000 204.936
47.03000 193.822
47.20000 196.935
47.37000 190.459
47.54000 199.790
47.71000 188.578
47.88000 203.728
48.05000 203.906
48.22000 199.156
48.39000 194.408
48.56000 186.601
48.73000 186.740
48.90000 186.780
49.07000 181.275
49.24000 185.912
49.41000 188.847
49.58000 180.063
49.75000 191.917
49.92000 192.188
50.09000 206.233
50.26000 212.141
50.43000 273.699
50.60000 294.356
50.77000 244.367
50.94000 201.443
51.11000 171.998
51.28000 170.986
51.45000 169.185
51.62000 167.043
51.79000 171.173
51.96000 168.063
52.13000 164.038
52.30000 162.959
52.47000 167.070
52.64000 156.407
52.81000 177.514
52.98000 163.569
53.15000 166.237
53.32000 171.422
53.49000 161.481
53.66000 152.600
53.83000 169.348
54.00000 161.535
54.17000 169.556
54.34000 162.808
54.51000 167.244
54.68000 160.266
54.85000 166.601
55.02000 169.050
55.19000 173.994
55.36000 217.145
55.53000 336.571
55.70000 542.586
55.87000 528.801
56.04000 309.443
56.21000 201.108
56.38000 167.350
56.55000 167.631
56.72000 153.781
56.89000 157.159
57.06000 146.787
57.23000 146.149
57.40000 152.388
57.57000 145.463
57.74000 141.252
57.91000 144.393
58.08000 147.083
58.25000 146.042
58.42000 155.279
58.59000 146.191
58.76000 137.790
58.93000 149.881
59.10000 139.525
59.27000 142.683
59.44000 129.766
59.61000 136.279
59.78000 132.386
59.95000 131.589
60.12000 139.982
60.29000 139.398
60.46000 131.269
60.63000 143.441
60.80000 137.708
60.97000 143.627
61.14000 138.118
61.31000 135.100
61.48000 156.328
61.65000 329.911
61.82000 227.199
61.99000 157.864
62.16000 146.775
62.33000 144.505
62.50000 142.347
62.67000 142.971
62.84000 148.729
63.01000 149.534
63.18000 150.371
63.35000 150.653
63.52000 152.725
63.69000 152.064
63.86000 167.110
64.03000 151.671
64.20000 164.126
64.37000 165.792
64.54000 172.343
64.71000 182.789
64.88000 196.691
65.05000 251.055
65.22000 371.478
65.39000 427.996
65.56000 383.391
65.73000 736.264
65.90000 1382.311
66.07000 433.971
66.24000 341.970
66.41000 514.650
66.58000 389.790
66.75000 342.707
66.92000 368.405
67.09000 385.979
67.26000 413.511
67.43000 445.425
67.60000 471.004
67.77000 522.799
67.94000 564.951
68.11000 614.341
68.28000 691.610
68.45000 825.131
68.62000 1196.776
68.79000 2383.140
68.96000 17473.131
69.13000 82551.156
69.30000 50234.012
69.47000 12506.568
69.64000 1604.589
69.81000 998.826
69.98000 796.918
70.00000 774.372

File: BTO_Mapping_Theta2Theta_30-09-2025_001_50_3-090_-9-511.xy
20.00000 590.188
20.17000 576.593
20.34000 572.540
20.51000 568.764
20.68000 559.988
20.85000 555.263
21.02000 553.741
21.19000 564.550
21.36000 567.563
21.53000 568.454
21.70000 586.059
21.87000 750.571
22.04000 900.354
22.21000 692.249
22.38000 556.595
22.55000 539.941
22.72000 500.059
22.89000 525.591
23.06000 500.330
23.23000 525.844
23.40000 518.758
23.57000 494.368
23.74000 499.649
23.91000 501.939
24.08000 499.644
24.25000 508.837
24.42000 471.773
24.59000 483.767
24.76000 489.601
24.93000 507.423
25.10000 485.142
25.27000 499.159
25.44000 472.807
25.61000 466.832
25.78000 467.119
25.95000 471.633
26.12000 471.355
26.29000 463.529
26.46000 446.004
26.63000 445.846
26.80000 442.126
26.97000 465.779
27.14000 448.220
27.31000 445.607
27.48000 462.946
27.65000 439.201
27.82000 449.502
27.99000 437.593
28.16000 458.584
28.33000 439.049
28.50000 428.557
28.67000 422.037
28.84000 430.276
29.01000 425.005
29.18000 429.477
29.35000 419.837
29.52000 402.849
29.69000 435.023
29.86000 442.079
30.03000 465.494
30.20000 447.685
30.37000 438.694
30.54000 456.418
30.71000 459.494
30.88000 534.770
31.05000 750.895
31.22000 2460.023
31.39000 3876.754
31.56000 1493.161
31.73000 555.658
31.90000 450.071
32.07000 411.375
32.24000 390.189
32.41000 391.880
32.58000 391.117
32.75000 354.709
32.92000 459.104
33.09000 470.563
33.26000 358.308
33.43000 355.777
33.60000 346.518
33.77000 337.739
33.94000 339.735
34.11000 354.222
34.28000 332.257
34.45000 356.136
34.62000 320.524
34.79000 335.200
34.96000 319.206
35.13000 317.532
35.30000 314.318
35.47000 320.944
35.64000 305.857
35.81000 309.048
35.98000 314.810
36.15000 309.406
36.32000 308.052
36.49000 291.491
36.66000 308.652
36.83000 313.094
37.00000 322.084
37.17000 289.799
37.34000 296.217
37.51000 298.823
37.68000 287.835
37.85000 292.073
38.02000 312.956
38.19000 314.707
38.36000 350.205
38.53000 481.844
38.70000 700.440
38.87000 471.189
39.04000 323.533
39.21000 286.844
39.38000 262.971
39.55000 273.012
39.72000 274.818
39.89000 271.209
40.06000 263.477
40.23000 259.649
40.40000 248.259
40.57000 262.586
40.74000 254.494
40.91000 245.252
41.08000 249.790
41.25000 242.162
41.42000 252.259
41.59000 241.890
41.76000 240.896
41.93000 251.496
42.10000 247.567
42.27000 225.651
42.44000 244.668
42.61000 235.702
42.78000 231.234
42.95000 238.008
43.12000 232.388
43.29000 221.453
43.46000 239.163
43.63000 212.862
43.80000 227.179
43.97000 220.045
44.14000 235.809
44.31000 223.164
44.48000 238.713
44.65000 258.609
44.82000 342.397
44.99000 529.205
45.16000 458.029
45.33000 292.792
45.50000 253.561
45.67000 229.157
45.84000 209.353
46.01000 214.534
46.18000 214.424
46.35000 217.308
46.52000 203.916
46.69000 193.846
46.86000 192.254
47.03000 198.991
47.20000 201.780
47.37000 188.889
47.54000 189.912
47.71000 190.424
47.88000 194.070
48.05000 192.504
48.22000 187.592
48.39000 193.416
48.56000 188.953
48.73000 170.974
48.90000 179.150
49.07000 190.471
49.24000 174.869
49.41000 181.409
49.58000 178.522
49.75000 170.576
49.92000 182.779
50.09000 189.875
50.26000 205.219
50.43000 222.883
50.60000 284.467
50.77000 273.857
50.94000 200.010
51.11000 168.522
51.28000 175.153
51.45000 166.538
51.62000 171.149
51.79000 165.673
51.96000 174.990
52.13000 165.671
52.30000 171.322
52.47000 163.429
52.64000 163.235
52.81000 159.488
52.98000 161.660
53.15000 158.676
53.32000 167.652
53.49000 166.320
53.66000 161.135
53.83000 165.691
54.00000 166.437
54.17000 156.816
54.34000 152.787
54.51000 156.223
54.68000 159.772
54.85000 156.829
55.02000 165.033
55.19000 161.990
55.36000 176.094
55.53000 208.817
55.70000 395.398
55.87000 657.504
56.04000 510.199
56.21000 267.474
56.38000 197.264
56.55000 164.708
56.72000 143.501
56.89000 148.630
57.06000 152.920
57.23000 150.837
57.40000 160.844
57.57000 144.792
57.74000 145.184
57.91000 149.783
58.08000 149.759
58.25000 147.290
58.42000 142.988
58.59000 138.286
58.76000 139.750
58.93000 139.390
59.10000 138.277
59.27000 136.766
59.44000 132.368
59.61000 135.848
59.78000 142.501
59.95000 139.652
60.12000 141.564
60.29000 140.168
60.46000 147.331
60.63000 139.535
60.80000 137.372
60.97000 139.987
61.14000 137.525
61.31000 146.848
61.48000 143.137
61.65000 319.638
61.82000 220.309
61.99000 147.307
62.16000 133.552
62.33000 148.651
62.50000 136.886
62.67000 136.776
62.84000 145.123
63.01000 144.659
63.18000 154.397
63.35000 153.494
63.52000 148.834
63.69000 154.486
63.86000 158.411
64.03000 159.654
64.20000 170.232
64.37000 158.669
64.54000 175.080
64.71000 181.682
64.88000 183.902
65.05000 205.830
65.22000 270.494
65.39000 386.486
65.56000 456.008
65.73000 789.283
65.90000 1335.218
66.07000 397.769
66.24000 342.417
66.41000 514.317
66.58000 377.764
66.75000 337.992
66.92000 349.081
67.09000 380.048
67.26000 388.326
67.43000 453.507
67.60000 486.782
67.77000 512.182
67.94000 577.508
68.11000 620.122
68.28000 680.035
68.45000 792.760
68.62000 1179.054
68.79000 2282.169
68.96000 17022.533
69.13000 78240.719
69.30000 46607.297
69.47000 11066.677
69.64000 1484.555
69.81000 978.542
69.98000 765.945
70.00000 757.574

File: BTO_Mapping_Theta2Theta_30-09-2025_001_55_13-383_-14-863.xy
20.00000 570.001
20.17000 575.817
20.34000 576.358
20.51000 560.655
20.68000 558.161
20.85000 570.899
21.02000 567.846
21.19000 567.061
21.36000 554.887
21.53000 570.047
21.70000 596.725
21.87000 804.545
22.04000 916.526
22.21000 686.091
22.38000 574.821
22.55000 554.468
22.72000 531.390
22.89000 521.073
23.06000 528.390
23.23000 533.533
23.40000 506.646
23.57000 526.518
23.74000 506.282
23.91000 511.662
24.08000 498.348
24.25000 500.534
24.42000 501.378
24.59000 494.139
24.76000 503.956
24.93000 473.002
25.10000 472.640
25.27000 480.404
25.44000 480.272
25.61000 482.514
25.78000 456.980
25.95000 458.991
26.12000 484.547
26.29000 464.359
26.46000 482.235
26.63000 468.557
26.80000 453.795
26.97000 463.236
27.14000 467.828
27.31000 453.105
27.48000 440.139
27.65000 457.529
27.82000 431.539
27.99000 443.349
28.16000 451.770
28.33000 445.602
28.50000 439.790
28.67000 435.747
28.84000 435.299
29.01000 436.507
29.18000 420.055
29.35000 412.524
29.52000 419.747
29.69000 444.333
29.86000 456.533
30.03000 469.487
30.20000 452.540
30.37000 441.280
30.54000 450.012
30.71000 469.677
30.88000 529.369
31.05000 958.588
31.22000 3131.818
31.39000 3859.953
31.56000 1231.545
31.73000 530.987
31.90000 446.608
32.07000 421.310
32.24000 411.527
32.41000 406.505
32.58000 393.242
32.75000 382.166
32.92000 464.142
33.09000 456.076
33.26000 374.281
33.43000 354.771
33.60000 355.264
33.77000 336.302
33.94000 347.053
34.11000 343.766
34.28000 343.187
34.45000 347.538
34.62000 339.432
34.79000 336.907
34.96000 327.894
35.13000 332.934
35.30000 332.942
35.47000 310.534
35.64000 311.735
35.81000 298.370
35.98000 302.758
36.15000 298.660
36.32000 296.320
36.49000 309.359
36.66000 316.676
36.83000 311.562
37.00000 313.799
37.17000 306.758
37.34000 300.034
37.51000 292.852
37.68000 294.692
37.85000 304.201
38.02000 304.102
38.19000 324.926
38.36000 342.271
38.53000 499.012
38.70000 590.780
38.87000 398.177
39.04000 289.646
39.21000 284.323
39.38000 275.577
39.55000 275.497
39.72000 275.841
39.89000 269.575
40.06000 262.520
40.23000 260.570
40.40000 252.929
40.57000 257.628
40.74000 259.333
40.91000 249.230
41.08000 257.153
41.25000 257.531
41.42000 241.666
41.59000 244.759
41.76000 247.500
41.93000 229.833
42.10000 254.437
42.27000 244.070
42.44000 244.509
42.61000 230.493
42.78000 236.766
42.95000 238.411
43.12000 232.100
43.29000 219.729
43.46000 235.249
43.63000 214.126
43.80000 236.870
43.97000 231.676
44.14000 235.244
44.31000 229.169
44.48000 241.989
44.65000 282.338
44.82000 437.280
44.99000 542.740
45.16000 435.419
45.33000 286.221
45.50000 246.709
45.67000 220.683
45.84000 217.135
46.01000 215.752
46.18000 224.357
46.35000 208.753
46.52000 202.232
46.69000 198.882
46.86000 196.191
47.03000 199.776
47.20000 193.261
47.37000 198.486
47.54000 185.410
47.71000 190.941
47.88000 192.510
48.05000 196.271
48.22000 191.696
48.39000 192.219
48.56000 189.072
48.73000 189.698
48.90000 194.390
49.07000 179.900
49.24000 192.118
49.41000 180.439
49.58000 186.891
49.75000 164.380
49.92000 185.722
50.09000 191.604
50.26000 188.979
50.43000 244.162
50.60000 302.773
50.77000 271.613
50.94000 201.502
51.11000 190.325
51.28000 170.583
51.45000 167.612
51.62000 162.714
51.79000 173.425
51.96000 170.302
52.13000 172.430
52.30000 161.084
52.47000 163.913
52.64000 162.389
52.81000 160.477
52.98000 165.637
53.15000 170.363
53.32000 175.312
53.49000 156.468
53.66000 153.783
53.83000 157.857
54.00000 162.727
54.17000 165.944
54.34000 162.938
54.51000 151.176
54.68000 154.205
54.85000 168.368
55.02000 154.309
55.19000 170.666
55.36000 193.944
55.53000 262.160
55.70000 478.342
55.87000 658.895
56.04000 439.398
56.21000 248.471
56.38000 171.479
56.55000 169.275
56.72000 154.797
56.89000 160.804
57.06000 158.282
57.23000 152.964
57.40000 143.147
57.57000 139.629
57.74000 146.055
57.91000 142.979
58.08000 134.731
58.25000 135.615
58.42000 137.947
58.59000 135.745
58.76000 144.008
58.93000 138.153
59.10000 139.308
59.27000 138.567
59.44000 137.923
59.61000 136.246
59.78000 135.628
59.95000 132.581
60.12000 138.031
60.29000 132.171
60.46000 138.319
60.63000 132.987
60.80000 127.789
60.97000 126.635
61.14000 138.928
61.31000 133.299
61.48000 156.101
61.65000 333.658
61.82000 211.422
61.99000 143.519
62.16000 142.034
62.33000 137.357
62.50000 155.196
62.67000 142.441
62.84000 148.263
63.01000 144.278
63.18000 155.341
63.35000 151.663
63.52000 158.427
63.69000 147.212
63.86000 161.247
64.03000 155.125
64.20000 163.074
64.37000 167.884
64.54000 164.060
64.71000 181.627
64.88000 196.617
65.05000 217.725
65.22000 297.998
65.39000 436.090
65.56000 462.432
65.73000 827.651
65.90000 1353.153
66.07000 414.451
66.24000 355.563
66.41000 515.667
66.58000 372.855
66.75000 357.282
66.92000 349.773
67.09000 385.456
67.26000 407.760
67.43000 445.141
67.60000 499.217
67.77000 518.195
67.94000 555.945
68.11000 624.969
68.28000 710.704
68.45000 821.964
68.62000 1255.226
68.79000 2376.319
68.96000 20744.982
69.13000 82017.469
69.30000 47648.738
69.47000 10300.938
69.64000 1506.081
69.81000 1002.883
69.98000 807.006
70.00000 789.886