Folder: Master-Thesis/XRD/30-09-2025 Dep 1/XY Data (part 4)

File: BTO_Mapping_Theta2Theta_30-09-2025_001_31_-19-563_4-158.xy
20.00000 547.521
20.17000 570.878
20.34000 571.034
20.51000 542.261
20.68000 541.898
20.85000 550.202
21.02000 555.189
21.19000 539.764
21.36000 551.569
21.53000 533.835
21.70000 566.432
21.87000 593.078
22.04000 662.843
22.21000 640.899
22.38000 555.743
22.55000 526.487
22.72000 513.463
22.89000 516.921
23.06000 520.725
23.23000 510.469
23.40000 514.077
23.57000 508.599
23.74000 500.477
23.91000 497.577
24.08000 515.684
24.25000 527.886
24.42000 505.226
24.59000 504.393
24.76000 486.072
24.93000 482.284
25.10000 471.124
25.27000 468.263
25.44000 478.613
25.61000 467.169
25.78000 462.397
25.95000 460.504
26.12000 458.663
26.29000 471.285
26.46000 452.636
26.63000 435.932
26.80000 446.762
26.97000 433.090
27.14000 458.907
27.31000 446.652
27.48000 433.946
27.65000 450.491
27.82000 447.973
27.99000 425.330
28.16000 438.782
28.33000 451.298
28.50000 441.754
28.67000 422.117
28.84000 436.205
29.01000 413.861
29.18000 412.236
29.35000 413.614
29.52000 399.785
29.69000 409.341
29.86000 427.680
30.03000 437.957
30.20000 432.740
30.37000 417.015
30.54000 413.233
30.71000 448.316
30.88000 445.944
31.05000 590.824
31.22000 1549.673
31.39000 3368.646
31.56000 1924.798
31.73000 603.496
31.90000 442.455
32.07000 417.658
32.24000 394.285
32.41000 406.643
32.58000 389.069
32.75000 382.204
32.92000 377.759
33.09000 381.350
33.26000 350.659
33.43000 342.186
33.60000 343.072
33.77000 331.060
33.94000 332.185
34.11000 338.253
34.28000 336.046
34.45000 349.764
34.62000 346.223
34.79000 338.543
34.96000 309.631
35.13000 325.997
35.30000 322.493
35.47000 302.680
35.64000 311.351
35.81000 304.190
35.98000 286.722
36.15000 313.472
36.32000 302.089
36.49000 306.562
36.66000 300.770
36.83000 306.414
37.00000 303.353
37.17000 294.457
37.34000 288.496
37.51000 277.026
37.68000 302.726
37.85000 310.447
38.02000 302.800
38.19000 287.661
38.36000 325.569
38.53000 472.087
38.70000 897.373
38.87000 740.596
39.04000 379.096
39.21000 286.865
39.38000 293.877
39.55000 275.922
39.72000 276.634
39.89000 261.668
40.06000 259.933
40.23000 259.500
40.40000 245.936
40.57000 274.437
40.74000 250.554
40.91000 248.975
41.08000 248.184
41.25000 245.311
41.42000 249.252
41.59000 240.735
41.76000 242.655
41.93000 236.954
42.10000 236.641
42.27000 228.787
42.44000 235.884
42.61000 236.431
42.78000 245.937
42.95000 238.809
43.12000 235.440
43.29000 225.782
43.46000 216.245
43.63000 228.433
43.80000 227.209
43.97000 221.576
44.14000 226.918
44.31000 226.713
44.48000 224.188
44.65000 249.081
44.82000 255.559
44.99000 316.209
45.16000 368.213
45.33000 287.542
45.50000 238.743
45.67000 226.387
45.84000 222.234
46.01000 204.033
46.18000 209.728
46.35000 207.293
46.52000 212.942
46.69000 212.071
46.86000 188.844
47.03000 196.906
47.20000 197.293
47.37000 192.750
47.54000 184.145
47.71000 195.381
47.88000 198.471
48.05000 182.047
48.22000 174.970
48.39000 181.794
48.56000 190.672
48.73000 184.189
48.90000 179.424
49.07000 181.609
49.24000 177.661
49.41000 185.948
49.58000 181.075
49.75000 186.487
49.92000 154.216
50.09000 171.197
50.26000 177.346
50.43000 198.800
50.60000 238.326
50.77000 256.010
50.94000 212.998
51.11000 178.978
51.28000 179.318
51.45000 168.599
51.62000 167.038
51.79000 168.901
51.96000 156.344
52.13000 168.875
52.30000 167.683
52.47000 162.432
52.64000 164.742
52.81000 152.023
52.98000 171.098
53.15000 160.491
53.32000 160.224
53.49000 167.200
53.66000 146.362
53.83000 169.627
54.00000 150.841
54.17000 158.969
54.34000 149.130
54.51000 160.130
54.68000 155.125
54.85000 145.854
55.02000 156.513
55.19000 166.181
55.36000 169.754
55.53000 188.445
55.70000 297.807
55.87000 565.101
56.04000 618.486
56.21000 355.150
56.38000 199.491
56.55000 163.208
56.72000 156.543
56.89000 166.224
57.06000 145.334
57.23000 141.937
57.40000 146.734
57.57000 137.653
57.74000 140.528
57.91000 134.744
58.08000 134.698
58.25000 133.225
58.42000 133.589
58.59000 139.761
58.76000 146.044
58.93000 141.416
59.10000 137.301
59.27000 143.543
59.44000 132.593
59.61000 133.762
59.78000 131.111
59.95000 132.692
60.12000 132.772
60.29000 138.251
60.46000 138.057
60.63000 130.227
60.80000 144.639
60.97000 136.682
61.14000 130.364
61.31000 137.897
61.48000 137.406
61.65000 237.835
61.82000 185.666
61.99000 131.445
62.16000 135.120
62.33000 135.156
62.50000 138.074
62.67000 138.924
62.84000 138.962
63.01000 140.480
63.18000 148.626
63.35000 141.675
63.52000 151.695
63.69000 147.025
63.86000 151.966
64.03000 159.114
64.20000 154.999
64.37000 165.068
64.54000 161.936
64.71000 173.089
64.88000 180.964
65.05000 200.824
65.22000 236.724
65.39000 316.062
65.56000 382.791
65.73000 558.536
65.90000 922.740
66.07000 363.056
66.24000 289.690
66.41000 392.550
66.58000 340.039
66.75000 289.158
66.92000 322.454
67.09000 331.473
67.26000 350.159
67.43000 387.996
67.60000 403.695
67.77000 427.783
67.94000 482.808
68.11000 523.260
68.28000 567.568
68.45000 670.802
68.62000 869.416
68.79000 1580.984
68.96000 6867.104
69.13000 47518.730
69.30000 30633.074
69.47000 8871.423
69.64000 1161.953
69.81000 789.537
69.98000 649.404
70.00000 649.387

File: BTO_Mapping_Theta2Theta_30-09-2025_001_32_-29-344_6-237.xy
20.00000 576.865
20.17000 566.212
20.34000 579.289
20.51000 561.087
20.68000 544.346
20.85000 552.947
21.02000 547.646
21.19000 550.672
21.36000 523.574
21.53000 550.142
21.70000 537.932
21.87000 611.399
22.04000 642.243
22.21000 647.850
22.38000 545.402
22.55000 531.743
22.72000 527.014
22.89000 511.803
23.06000 515.981
23.23000 529.572
23.40000 510.267
23.57000 515.687
23.74000 514.058
23.91000 508.437
24.08000 524.930
24.25000 523.796
24.42000 481.631
24.59000 461.242
24.76000 480.151
24.93000 488.026
25.10000 492.622
25.27000 465.933
25.44000 484.203
25.61000 486.061
25.78000 462.805
25.95000 463.130
26.12000 462.963
26.29000 437.539
26.46000 464.087
26.63000 442.606
26.80000 440.300
26.97000 452.914
27.14000 460.567
27.31000 431.490
27.48000 448.070
27.65000 428.229
27.82000 446.124
27.99000 436.345
28.16000 425.649
28.33000 432.125
28.50000 416.394
28.67000 418.053
28.84000 413.496
29.01000 403.309
29.18000 407.137
29.35000 400.305
29.52000 401.298
29.69000 422.171
29.86000 412.653
30.03000 429.756
30.20000 427.366
30.37000 427.249
30.54000 418.144
30.71000 418.938
30.88000 474.044
31.05000 541.428
31.22000 1286.474
31.39000 2958.932
31.56000 1878.418
31.73000 632.148
31.90000 448.631
32.07000 417.724
32.24000 406.066
32.41000 386.315
32.58000 365.737
32.75000 384.708
32.92000 368.816
33.09000 384.871
33.26000 342.501
33.43000 346.415
33.60000 335.011
33.77000 344.765
33.94000 350.581
34.11000 352.182
34.28000 368.945
34.45000 365.873
34.62000 361.166
34.79000 348.197
34.96000 321.629
35.13000 321.710
35.30000 307.397
35.47000 307.735
35.64000 324.032
35.81000 293.701
35.98000 303.633
36.15000 294.537
36.32000 285.552
36.49000 295.555
36.66000 294.548
36.83000 302.938
37.00000 301.318
37.17000 296.593
37.34000 289.630
37.51000 298.472
37.68000 302.803
37.85000 289.659
38.02000 282.230
38.19000 294.968
38.36000 334.501
38.53000 473.432
38.70000 951.928
38.87000 885.871
39.04000 399.341
39.21000 307.378
39.38000 279.168
39.55000 277.952
39.72000 264.899
39.89000 264.678
40.06000 259.563
40.23000 260.464
40.40000 261.822
40.57000 249.003
40.74000 255.548
40.91000 251.160
41.08000 244.495
41.25000 263.463
41.42000 250.361
41.59000 231.200
41.76000 236.838
41.93000 252.726
42.10000 231.973
42.27000 243.267
42.44000 230.635
42.61000 233.716
42.78000 230.076
42.95000 236.125
43.12000 218.029
43.29000 238.078
43.46000 220.849
43.63000 229.216
43.80000 217.477
43.97000 219.813
44.14000 218.297
44.31000 212.400
44.48000 227.843
44.65000 237.435
44.82000 240.345
44.99000 287.701
45.16000 296.622
45.33000 272.148
45.50000 235.749
45.67000 221.840
45.84000 211.540
46.01000 193.032
46.18000 207.902
46.35000 208.925
46.52000 209.935
46.69000 204.754
46.86000 201.892
47.03000 203.180
47.20000 188.515
47.37000 191.332
47.54000 192.772
47.71000 185.649
47.88000 194.564
48.05000 179.890
48.22000 196.674
48.39000 192.648
48.56000 175.539
48.73000 180.346
48.90000 176.805
49.07000 172.520
49.24000 179.423
49.41000 179.581
49.58000 169.350
49.75000 189.721
49.92000 161.846
50.09000 180.670
50.26000 181.585
50.43000 197.342
50.60000 223.817
50.77000 239.380
50.94000 204.452
51.11000 178.869
51.28000 179.952
51.45000 159.019
51.62000 163.451
51.79000 148.374
51.96000 167.494
52.13000 162.532
52.30000 158.772
52.47000 166.460
52.64000 160.957
52.81000 162.038
52.98000 158.915
53.15000 158.165
53.32000 170.208
53.49000 172.493
53.66000 156.324
53.83000 162.593
54.00000 150.407
54.17000 149.872
54.34000 161.454
54.51000 157.768
54.68000 156.154
54.85000 149.721
55.02000 163.193
55.19000 162.041
55.36000 162.509
55.53000 200.655
55.70000 269.397
55.87000 509.408
56.04000 586.233
56.21000 385.305
56.38000 212.480
56.55000 171.679
56.72000 152.163
56.89000 152.700
57.06000 147.121
57.23000 150.977
57.40000 140.437
57.57000 146.492
57.74000 141.314
57.91000 139.137
58.08000 129.877
58.25000 136.841
58.42000 132.574
58.59000 134.272
58.76000 132.722
58.93000 133.175
59.10000 138.856
59.27000 140.521
59.44000 129.042
59.61000 126.174
59.78000 133.655
59.95000 129.507
60.12000 131.384
60.29000 137.293
60.46000 137.144
60.63000 129.637
60.80000 132.165
60.97000 139.496
61.14000 146.099
61.31000 144.671
61.48000 149.501
61.65000 231.837
61.82000 206.238
61.99000 146.319
62.16000 147.883
62.33000 138.198
62.50000 150.821
62.67000 135.236
62.84000 140.048
63.01000 146.886
63.18000 147.698
63.35000 144.654
63.52000 150.859
63.69000 151.361
63.86000 139.455
64.03000 149.519
64.20000 162.580
64.37000 165.979
64.54000 162.837
64.71000 160.010
64.88000 178.367
65.05000 191.653
65.22000 208.277
65.39000 280.737
65.56000 374.068
65.73000 524.271
65.90000 878.555
66.07000 372.033
66.24000 290.448
66.41000 393.225
66.58000 332.699
66.75000 298.175
66.92000 308.269
67.09000 322.305
67.26000 353.248
67.43000 363.508
67.60000 376.371
67.77000 413.023
67.94000 484.739
68.11000 512.056
68.28000 564.120
68.45000 650.975
68.62000 845.599
68.79000 1501.024
68.96000 5682.781
69.13000 46670.063
69.30000 31704.305
69.47000 9778.425
69.64000 1207.628
69.81000 784.587
69.98000 646.406
70.00000 638.391

File: BTO_Mapping_Theta2Theta_30-09-2025_001_40_-24-271_-17-634.xy
20.00000 567.126
20.17000 536.272
20.34000 570.207
20.51000 572.641
20.68000 550.793
20.85000 548.209
21.02000 556.998
21.19000 552.600
21.36000 530.815
21.53000 561.452
21.70000 575.864
21.87000 653.838
22.04000 834.165
22.21000 730.692
22.38000 559.113
22.55000 531.390
22.72000 532.020
22.89000 525.176
23.06000 502.382
23.23000 498.400
23.40000 498.172
23.57000 516.809
23.74000 502.044
23.91000 504.150
24.08000 499.248
24.25000 496.212
24.42000 497.823
24.59000 475.596
24.76000 480.461
24.93000 484.568
25.10000 472.155
25.27000 480.098
25.44000 485.803
25.61000 476.378
25.78000 475.993
25.95000 472.527
26.12000 455.901
26.29000 459.044
26.46000 451.323
26.63000 449.761
26.80000 441.828
26.97000 460.817
27.14000 449.101
27.31000 432.839
27.48000 448.378
27.65000 419.381
27.82000 448.051
27.99000 439.723
28.16000 445.828
28.33000 437.266
28.50000 428.801
28.67000 437.767
28.84000 437.300
29.01000 433.508
29.18000 412.303
29.35000 420.762
29.52000 426.585
29.69000 410.930
29.86000 437.389
30.03000 469.205
30.20000 444.547
30.37000 432.874
30.54000 439.736
30.71000 458.872
30.88000 473.777
31.05000 641.658
31.22000 1906.857
31.39000 4099.596
31.56000 2068.022
31.73000 605.713
31.90000 457.141
32.07000 436.528
32.24000 410.849
32.41000 396.442
32.58000 379.759
32.75000 387.225
32.92000 429.943
33.09000 461.922
33.26000 364.925
33.43000 348.288
33.60000 345.152
33.77000 348.870
33.94000 341.216
34.11000 311.843
34.28000 321.442
34.45000 345.989
34.62000 339.582
34.79000 312.141
34.96000 320.003
35.13000 330.562
35.30000 306.689
35.47000 335.819
35.64000 314.163
35.81000 323.484
35.98000 322.787
36.15000 304.266
36.32000 307.537
36.49000 297.371
36.66000 296.772
36.83000 310.280
37.00000 306.091
37.17000 293.737
37.34000 287.482
37.51000 299.782
37.68000 297.629
37.85000 303.907
38.02000 289.964
38.19000 293.989
38.36000 317.423
38.53000 451.232
38.70000 744.296
38.87000 601.204
39.04000 334.622
39.21000 297.976
39.38000 279.226
39.55000 266.864
39.72000 264.907
39.89000 262.690
40.06000 268.415
40.23000 258.252
40.40000 271.702
40.57000 260.458
40.74000 268.162
40.91000 260.700
41.08000 257.679
41.25000 236.448
41.42000 237.477
41.59000 242.208
41.76000 242.215
41.93000 232.267
42.10000 243.236
42.27000 233.427
42.44000 227.704
42.61000 236.398
42.78000 241.643
42.95000 239.673
43.12000 223.535
43.29000 229.942
43.46000 237.161
43.63000 225.924
43.80000 220.618
43.97000 228.463
44.14000 231.652
44.31000 226.502
44.48000 225.897
44.65000 243.942
44.82000 289.318
44.99000 433.204
45.16000 451.718
45.33000 316.666
45.50000 248.564
45.67000 228.114
45.84000 210.992
46.01000 213.763
46.18000 215.101
46.35000 207.930
46.52000 213.636
46.69000 212.401
46.86000 202.523
47.03000 191.836
47.20000 187.647
47.37000 188.116
47.54000 186.272
47.71000 193.668
47.88000 197.796
48.05000 185.183
48.22000 183.877
48.39000 191.229
48.56000 177.176
48.73000 188.063
48.90000 170.674
49.07000 182.445
49.24000 185.021
49.41000 173.402
49.58000 183.131
49.75000 164.899
49.92000 190.033
50.09000 186.826
50.26000 189.287
50.43000 203.193
50.60000 264.228
50.77000 285.288
50.94000 227.034
51.11000 190.743
51.28000 171.788
51.45000 173.912
51.62000 162.813
51.79000 164.660
51.96000 158.819
52.13000 162.367
52.30000 158.084
52.47000 164.688
52.64000 155.834
52.81000 165.056
52.98000 168.322
53.15000 167.883
53.32000 170.399
53.49000 165.209
53.66000 161.661
53.83000 157.019
54.00000 167.403
54.17000 164.505
54.34000 154.452
54.51000 151.672
54.68000 159.043
54.85000 159.760
55.02000 152.217
55.19000 159.655
55.36000 159.896
55.53000 197.040
55.70000 325.917
55.87000 594.244
56.04000 596.910
56.21000 325.629
56.38000 204.162
56.55000 159.915
56.72000 160.831
56.89000 151.500
57.06000 143.900
57.23000 138.982
57.40000 145.118
57.57000 147.832
57.74000 142.290
57.91000 143.512
58.08000 141.809
58.25000 133.102
58.42000 136.951
58.59000 140.136
58.76000 142.250
58.93000 128.248
59.10000 132.230
59.27000 138.741
59.44000 138.468
59.61000 133.755
59.78000 130.883
59.95000 134.618
60.12000 135.602
60.29000 134.333
60.46000 135.376
60.63000 130.800
60.80000 128.241
60.97000 126.201
61.14000 137.143
61.31000 136.216
61.48000 151.719
61.65000 301.041
61.82000 255.518
61.99000 151.926
62.16000 146.622
62.33000 137.473
62.50000 147.235
62.67000 146.707
62.84000 144.382
63.01000 149.652
63.18000 154.227
63.35000 138.642
63.52000 147.384
63.69000 161.792
63.86000 165.075
64.03000 162.984
64.20000 176.350
64.37000 166.002
64.54000 179.619
64.71000 178.910
64.88000 190.258
65.05000 199.515
65.22000 252.956
65.39000 349.049
65.56000 463.004
65.73000 708.771
65.90000 1319.539
66.07000 468.993
66.24000 334.348
66.41000 503.546
66.58000 395.585
66.75000 335.306
66.92000 359.380
67.09000 374.701
67.26000 411.241
67.43000 442.880
67.60000 485.797
67.77000 521.689
67.94000 563.051
68.11000 599.119
68.28000 673.485
68.45000 785.810
68.62000 1093.984
68.79000 2158.577
68.96000 10958.155
69.13000 77157.195
69.30000 51102.953
69.47000 15194.941
69.64000 1571.199
69.81000 997.099
69.98000 795.518
70.00000 766.563

File: BTO_Mapping_Theta2Theta_30-09-2025_001_41_-32-361_-23-511.xy
20.00000 574.953
20.17000 537.321
20.34000 560.888
20.51000 560.991
20.68000 578.880
20.85000 545.429
21.02000 551.247
21.19000 569.188
21.36000 553.036
21.53000 571.551
21.70000 563.689
21.87000 631.046
22.04000 803.070
22.21000 718.639
22.38000 575.224
22.55000 547.407
22.72000 539.157
22.89000 506.378
23.06000 525.189
23.23000 525.555
23.40000 498.236
23.57000 506.715
23.74000 508.861
23.91000 491.856
24.08000 501.249
24.25000 499.898
24.42000 500.723
24.59000 503.033
24.76000 497.147
24.93000 480.126
25.10000 481.755
25.27000 483.908
25.44000 475.267
25.61000 468.839
25.78000 467.879
25.95000 477.196
26.12000 481.863
26.29000 456.567
26.46000 472.535
26.63000 441.530
26.80000 449.552
26.97000 443.441
27.14000 456.036
27.31000 449.616
27.48000 447.087
27.65000 434.583
27.82000 470.727
27.99000 459.396
28.16000 437.721
28.33000 451.722
28.50000 430.276
28.67000 419.724
28.84000 415.216
29.01000 421.036
29.18000 425.914
29.35000 412.322
29.52000 411.155
29.69000 411.070
29.86000 425.182
30.03000 459.997
30.20000 442.332
30.37000 423.832
30.54000 435.229
30.71000 457.068
30.88000 505.614
31.05000 636.542
31.22000 1792.078
31.39000 4171.565
31.56000 2422.594
31.73000 671.191
31.90000 468.469
32.07000 420.296
32.24000 411.380
32.41000 382.014
32.58000 374.194
32.75000 355.382
32.92000 397.450
33.09000 462.102
33.26000 360.820
33.43000 357.431
33.60000 332.543
33.77000 335.707
33.94000 342.617
34.11000 343.335
34.28000 327.445
34.45000 340.509
34.62000 323.527
34.79000 327.798
34.96000 323.347
35.13000 325.581
35.30000 299.606
35.47000 320.075
35.64000 317.857
35.81000 317.813
35.98000 313.451
36.15000 303.227
36.32000 307.287
36.49000 292.797
36.66000 291.693
36.83000 297.666
37.00000 311.717
37.17000 315.436
37.34000 293.619
37.51000 309.208
37.68000 294.938
37.85000 304.406
38.02000 292.135
38.19000 293.370
38.36000 325.238
38.53000 433.110
38.70000 713.685
38.87000 627.675
39.04000 351.116
39.21000 295.766
39.38000 277.869
39.55000 272.021
39.72000 272.455
39.89000 276.625
40.06000 258.976
40.23000 234.263
40.40000 256.733
40.57000 256.280
40.74000 257.962
40.91000 248.315
41.08000 239.424
41.25000 240.781
41.42000 254.256
41.59000 247.283
41.76000 230.366
41.93000 253.595
42.10000 228.273
42.27000 237.528
42.44000 230.997
42.61000 227.316
42.78000 221.266
42.95000 218.380
43.12000 230.518
43.29000 235.210
43.46000 232.951
43.63000 228.019
43.80000 225.740
43.97000 209.413
44.14000 219.407
44.31000 218.360
44.48000 228.894
44.65000 243.002
44.82000 285.254
44.99000 398.989
45.16000 448.141
45.33000 319.732
45.50000 244.856
45.67000 223.717
45.84000 214.770
46.01000 203.394
46.18000 209.280
46.35000 207.864
46.52000 208.560
46.69000 207.718
46.86000 211.942
47.03000 195.290
47.20000 183.223
47.37000 188.574
47.54000 194.032
47.71000 181.817
47.88000 191.741
48.05000 199.049
48.22000 192.391
48.39000 185.792
48.56000 177.926
48.73000 184.460
48.90000 193.362
49.07000 186.797
49.24000 175.439
49.41000 177.073
49.58000 186.155
49.75000 179.936
49.92000 177.323
50.09000 171.184
50.26000 181.436
50.43000 199.992
50.60000 248.433
50.77000 283.566
50.94000 234.140
51.11000 182.118
51.28000 161.630
51.45000 169.447
51.62000 163.670
51.79000 177.595
51.96000 171.040
52.13000 166.018
52.30000 164.472
52.47000 158.231
52.64000 169.341
52.81000 156.607
52.98000 161.916
53.15000 175.947
53.32000 168.910
53.49000 168.779
53.66000 156.991
53.83000 158.391
54.00000 156.297
54.17000 163.997
54.34000 144.579
54.51000 163.827
54.68000 159.799
54.85000 146.916
55.02000 164.807
55.19000 162.866
55.36000 173.258
55.53000 194.724
55.70000 284.135
55.87000 573.852
56.04000 634.147
56.21000 367.288
56.38000 187.794
56.55000 168.825
56.72000 158.079
56.89000 150.193
57.06000 137.542
57.23000 152.452
57.40000 150.801
57.57000 148.080
57.74000 140.019
57.91000 138.090
58.08000 129.917
58.25000 138.197
58.42000 145.053
58.59000 129.990
58.76000 128.824
58.93000 135.339
59.10000 134.360
59.27000 132.868
59.44000 142.315
59.61000 145.212
59.78000 124.245
59.95000 134.634
60.12000 136.238
60.29000 140.126
60.46000 131.245
60.63000 127.373
60.80000 130.167
60.97000 132.401
61.14000 145.957
61.31000 149.277
61.48000 145.998
61.65000 300.518
61.82000 256.334
61.99000 145.407
62.16000 141.573
62.33000 145.666
62.50000 147.800
62.67000 141.358
62.84000 153.671
63.01000 152.562
63.18000 140.970
63.35000 150.802
63.52000 151.215
63.69000 152.480
63.86000 163.400
64.03000 159.678
64.20000 157.247
64.37000 170.703
64.54000 162.845
64.71000 172.441
64.88000 190.257
65.05000 198.672
65.22000 253.918
65.39000 314.759
65.56000 478.383
65.73000 711.460
65.90000 1399.224
66.07000 505.038
66.24000 317.691
66.41000 499.533
66.58000 407.450
66.75000 345.881
66.92000 361.393
67.09000 376.067
67.26000 398.334
67.43000 428.569
67.60000 477.070
67.77000 511.466
67.94000 555.736
68.11000 601.403
68.28000 674.255
68.45000 807.154
68.62000 1073.816
68.79000 2148.029
68.96000 9653.054
69.13000 77268.469
69.30000 53351.063
69.47000 16944.619
69.64000 1618.559
69.81000 1017.660
69.98000 789.639
70.00000 820.342

File: BTO_Mapping_Theta2Theta_30-09-2025_001_43_-10-000_-17-321.xy
20.00000 565.073
20.17000 561.378
20.34000 568.225
20.51000 557.613
20.68000 559.466
20.85000 572.268
21.02000 547.800
21.19000 585.951
21.36000 548.315
21.53000 577.549
21.70000 594.594
21.87000 711.928
22.04000 915.437
22.21000 712.818
22.38000 573.437
22.55000 555.944
22.72000 537.053
22.89000 522.919
23.06000 515.902
23.23000 506.463
23.40000 513.044
23.57000 515.785
23.74000 500.453
23.91000 506.476
24.08000 502.331
24.25000 493.666
24.42000 496.727
24.59000 461.102
24.76000 491.993
24.93000 506.109
25.10000 486.524
25.27000 474.580
25.44000 470.831
25.61000 487.617
25.78000 483.570
25.95000 478.155
26.12000 446.698
26.29000 464.622
26.46000 458.970
26.63000 466.027
26.80000 455.791
26.97000 460.486
27.14000 460.056
27.31000 450.446
27.48000 438.838
27.65000 433.874
27.82000 435.276
27.99000 433.936
28.16000 438.964
28.33000 437.434
28.50000 420.255
28.67000 431.117
28.84000 427.552
29.01000 428.089
29.18000 427.862
29.35000 415.832
29.52000 424.139
29.69000 428.327
29.86000 455.771
30.03000 456.661
30.20000 440.132
30.37000 450.311
30.54000 460.272
30.71000 443.677
30.88000 517.308
31.05000 744.196
31.22000 2370.559
31.39000 3949.921
31.56000 1603.625
31.73000 571.185
31.90000 436.390
32.07000 437.612
32.24000 453.358
32.41000 391.585
32.58000 387.795
32.75000 390.086
32.92000 443.443
33.09000 461.220
33.26000 350.458
33.43000 349.556
33.60000 345.361
33.77000 347.329
33.94000 335.214
34.11000 318.764
34.28000 352.550
34.45000 327.704
34.62000 333.865
34.79000 329.538
34.96000 340.152
35.13000 314.227
35.30000 316.180
35.47000 320.523
35.64000 291.273
35.81000 312.272
35.98000 303.622
36.15000 304.098
36.32000 301.467
36.49000 304.386
36.66000 299.729
36.83000 291.337
37.00000 305.507
37.17000 319.723
37.34000 292.225
37.51000 289.825
37.68000 309.073
37.85000 297.673
38.02000 300.634
38.19000 314.977
38.36000 348.392
38.53000 469.270
38.70000 683.934
38.87000 483.527
39.04000 322.451
39.21000 289.654
39.38000 280.450
39.55000 267.926
39.72000 259.989
39.89000 261.877
40.06000 263.245
40.23000 256.527
40.40000 259.851
40.57000 249.363
40.74000 248.072
40.91000 257.311
41.08000 237.890
41.25000 241.323
41.42000 240.808
41.59000 252.517
41.76000 268.338
41.93000 239.167
42.10000 249.291
42.27000 235.092
42.44000 247.077
42.61000 216.179
42.78000 226.714
42.95000 240.071
43.12000 227.807
43.29000 228.126
43.46000 240.052
43.63000 235.934
43.80000 242.123
43.97000 240.802
44.14000 236.916
44.31000 230.900
44.48000 227.247
44.65000 256.851
44.82000 370.940
44.99000 554.199
45.16000 455.783
45.33000 291.301
45.50000 235.320
45.67000 224.087
45.84000 229.273
46.01000 212.444
46.18000 212.856
46.35000 206.253
46.52000 211.826
46.69000 214.463
46.86000 197.452
47.03000 197.926
47.20000 187.135
47.37000 192.077
47.54000 196.413
47.71000 190.116
47.88000 192.631
48.05000 188.211
48.22000 196.081
48.39000 171.729
48.56000 175.888
48.73000 183.545
48.90000 189.640
49.07000 190.536
49.24000 172.969
49.41000 166.905
49.58000 177.455
49.75000 178.464
49.92000 172.765
50.09000 181.974
50.26000 181.815
50.43000 214.333
50.60000 283.844
50.77000 284.525
50.94000 219.815
51.11000 184.746
51.28000 175.364
51.45000 186.951
51.62000 169.546
51.79000 169.304
51.96000 166.306
52.13000 172.938
52.30000 163.614
52.47000 159.744
52.64000 161.931
52.81000 161.549
52.98000 172.474
53.15000 171.842
53.32000 154.227
53.49000 169.328
53.66000 149.807
53.83000 159.454
54.00000 158.881
54.17000 153.878
54.34000 158.526
54.51000 147.380
54.68000 152.590
54.85000 160.648
55.02000 160.308
55.19000 172.846
55.36000 165.366
55.53000 221.506
55.70000 390.003
55.87000 648.631
56.04000 519.586
56.21000 263.043
56.38000 182.979
56.55000 168.456
56.72000 153.736
56.89000 148.617
57.06000 158.626
57.23000 152.042
57.40000 155.674
57.57000 139.093
57.74000 141.087
57.91000 133.187
58.08000 145.935
58.25000 146.582
58.42000 139.866
58.59000 139.044
58.76000 132.659
58.93000 133.364
59.10000 143.929
59.27000 120.732
59.44000 130.982
59.61000 126.516
59.78000 126.437
59.95000 140.983
60.12000 129.259
60.29000 135.767
60.46000 139.819
60.63000 129.391
60.80000 130.538
60.97000 124.870
61.14000 133.783
61.31000 145.583
61.48000 142.063
61.65000 306.153
61.82000 231.846
61.99000 144.608
62.16000 144.602
62.33000 135.860
62.50000 143.861
62.67000 146.903
62.84000 147.455
63.01000 145.590
63.18000 149.317
63.35000 141.148
63.52000 155.028
63.69000 152.364
63.86000 152.384
64.03000 166.232
64.20000 151.343
64.37000 151.413
64.54000 178.118
64.71000 176.710
64.88000 193.244
65.05000 205.708
65.22000 261.065
65.39000 391.498
65.56000 466.319
65.73000 736.210
65.90000 1386.862
66.07000 452.457
66.24000 332.330
66.41000 506.911
66.58000 388.202
66.75000 341.071
66.92000 350.962
67.09000 376.425
67.26000 419.471
67.43000 426.978
67.60000 483.285
67.77000 529.125
67.94000 562.714
68.11000 636.990
68.28000 692.302
68.45000 791.574
68.62000 1157.713
68.79000 2264.698
68.96000 14907.951
69.13000 79558.734
69.30000 49565.039
69.47000 12989.254
69.64000 1559.753
69.81000 971.901
69.98000 804.482
70.00000 794.557