Folder: Master-Thesis/XRD/30-09-2025 Dep 1/XY Data (part 2)

File: BTO_Mapping_Theta2Theta_30-09-2025_001_13_26-765_29-726.xy
20.00000 569.407
20.17000 562.490
20.34000 559.923
20.51000 545.169
20.68000 552.767
20.85000 553.447
21.02000 544.810
21.19000 559.873
21.36000 532.298
21.53000 543.140
21.70000 548.915
21.87000 575.564
22.04000 623.835
22.21000 626.716
22.38000 556.908
22.55000 522.552
22.72000 516.176
22.89000 500.491
23.06000 517.959
23.23000 495.776
23.40000 511.588
23.57000 505.530
23.74000 519.273
23.91000 524.615
24.08000 542.377
24.25000 502.663
24.42000 496.213
24.59000 480.480
24.76000 479.042
24.93000 491.362
25.10000 479.666
25.27000 460.109
25.44000 457.531
25.61000 457.106
25.78000 467.523
25.95000 479.613
26.12000 468.402
26.29000 456.430
26.46000 462.270
26.63000 459.188
26.80000 453.233
26.97000 437.045
27.14000 433.166
27.31000 440.929
27.48000 434.163
27.65000 450.721
27.82000 421.711
27.99000 438.733
28.16000 444.475
28.33000 428.575
28.50000 404.572
28.67000 423.472
28.84000 425.025
29.01000 410.944
29.18000 413.646
29.35000 407.999
29.52000 397.385
29.69000 409.460
29.86000 429.729
30.03000 427.621
30.20000 423.305
30.37000 425.587
30.54000 424.905
30.71000 424.253
30.88000 453.072
31.05000 556.886
31.22000 1341.696
31.39000 2555.207
31.56000 1421.069
31.73000 560.495
31.90000 422.981
32.07000 409.827
32.24000 382.433
32.41000 383.286
32.58000 381.349
32.75000 363.877
32.92000 367.266
33.09000 376.162
33.26000 349.448
33.43000 345.713
33.60000 348.062
33.77000 344.930
33.94000 363.005
34.11000 344.172
34.28000 361.564
34.45000 364.216
34.62000 351.145
34.79000 332.056
34.96000 323.279
35.13000 324.825
35.30000 302.950
35.47000 320.934
35.64000 297.085
35.81000 299.752
35.98000 313.322
36.15000 297.831
36.32000 301.387
36.49000 285.708
36.66000 304.791
36.83000 293.604
37.00000 319.433
37.17000 304.361
37.34000 292.187
37.51000 292.968
37.68000 307.434
37.85000 290.251
38.02000 292.858
38.19000 297.667
38.36000 322.917
38.53000 536.912
38.70000 1034.286
38.87000 833.450
39.04000 367.054
39.21000 294.895
39.38000 270.945
39.55000 282.395
39.72000 267.218
39.89000 271.215
40.06000 262.917
40.23000 250.870
40.40000 260.137
40.57000 246.609
40.74000 248.104
40.91000 246.758
41.08000 246.153
41.25000 240.934
41.42000 245.197
41.59000 237.204
41.76000 235.662
41.93000 243.725
42.10000 246.127
42.27000 255.388
42.44000 226.559
42.61000 240.510
42.78000 242.045
42.95000 228.762
43.12000 243.699
43.29000 231.337
43.46000 238.305
43.63000 223.119
43.80000 224.929
43.97000 226.897
44.14000 228.015
44.31000 205.240
44.48000 231.671
44.65000 242.187
44.82000 240.794
44.99000 263.451
45.16000 292.461
45.33000 256.696
45.50000 237.299
45.67000 220.710
45.84000 208.444
46.01000 215.517
46.18000 207.745
46.35000 208.931
46.52000 223.584
46.69000 213.041
46.86000 197.064
47.03000 198.245
47.20000 199.818
47.37000 195.904
47.54000 191.392
47.71000 180.697
47.88000 193.522
48.05000 194.257
48.22000 184.848
48.39000 200.914
48.56000 172.329
48.73000 181.143
48.90000 180.828
49.07000 179.084
49.24000 169.643
49.41000 178.189
49.58000 182.448
49.75000 181.745
49.92000 180.390
50.09000 189.342
50.26000 178.833
50.43000 193.861
50.60000 218.705
50.77000 227.478
50.94000 212.905
51.11000 172.148
51.28000 162.212
51.45000 175.691
51.62000 157.308
51.79000 174.591
51.96000 174.106
52.13000 162.303
52.30000 159.577
52.47000 149.738
52.64000 156.984
52.81000 158.122
52.98000 151.585
53.15000 156.629
53.32000 173.978
53.49000 165.303
53.66000 157.283
53.83000 159.120
54.00000 162.708
54.17000 150.329
54.34000 149.924
54.51000 154.413
54.68000 150.321
54.85000 164.414
55.02000 158.455
55.19000 153.812
55.36000 171.742
55.53000 191.277
55.70000 297.795
55.87000 550.272
56.04000 589.844
56.21000 338.236
56.38000 214.112
56.55000 162.918
56.72000 152.815
56.89000 148.674
57.06000 141.029
57.23000 140.806
57.40000 142.466
57.57000 143.716
57.74000 140.416
57.91000 145.067
58.08000 132.236
58.25000 140.834
58.42000 130.533
58.59000 137.760
58.76000 147.107
58.93000 132.867
59.10000 137.886
59.27000 131.889
59.44000 141.722
59.61000 138.084
59.78000 125.271
59.95000 133.651
60.12000 136.037
60.29000 129.332
60.46000 135.329
60.63000 132.049
60.80000 133.374
60.97000 145.111
61.14000 140.957
61.31000 142.093
61.48000 148.063
61.65000 236.386
61.82000 189.190
61.99000 141.660
62.16000 136.736
62.33000 133.150
62.50000 138.959
62.67000 138.406
62.84000 135.344
63.01000 153.771
63.18000 153.468
63.35000 145.477
63.52000 145.770
63.69000 151.242
63.86000 149.310
64.03000 165.915
64.20000 145.875
64.37000 156.448
64.54000 163.257
64.71000 164.465
64.88000 174.115
65.05000 187.113
65.22000 205.517
65.39000 277.663
65.56000 355.713
65.73000 618.479
65.90000 919.196
66.07000 318.416
66.24000 301.408
66.41000 397.685
66.58000 302.040
66.75000 299.153
66.92000 319.000
67.09000 332.017
67.26000 364.027
67.43000 386.988
67.60000 409.857
67.77000 452.141
67.94000 473.547
68.11000 515.621
68.28000 580.281
68.45000 669.479
68.62000 943.886
68.79000 1704.748
68.96000 11710.504
69.13000 48658.578
69.30000 27921.926
69.47000 6004.108
69.64000 1082.328
69.81000 763.833
69.98000 644.240
70.00000 627.641

File: BTO_Mapping_Theta2Theta_30-09-2025_001_15_6-180_19-021.xy
20.00000 592.233
20.17000 574.110
20.34000 555.678
20.51000 546.687
20.68000 561.567
20.85000 570.145
21.02000 541.125
21.19000 555.414
21.36000 544.875
21.53000 556.138
21.70000 541.212
21.87000 587.507
22.04000 639.210
22.21000 635.964
22.38000 548.832
22.55000 535.890
22.72000 547.995
22.89000 510.618
23.06000 521.166
23.23000 528.078
23.40000 529.935
23.57000 496.786
23.74000 506.032
23.91000 508.331
24.08000 517.948
24.25000 505.184
24.42000 512.135
24.59000 498.755
24.76000 494.998
24.93000 473.358
25.10000 491.459
25.27000 460.952
25.44000 473.751
25.61000 482.007
25.78000 468.981
25.95000 462.483
26.12000 463.249
26.29000 465.271
26.46000 458.281
26.63000 447.416
26.80000 445.842
26.97000 448.446
27.14000 442.009
27.31000 441.117
27.48000 436.507
27.65000 434.436
27.82000 439.736
27.99000 434.096
28.16000 448.938
28.33000 427.082
28.50000 420.141
28.67000 417.952
28.84000 420.283
29.01000 423.523
29.18000 408.365
29.35000 422.531
29.52000 416.104
29.69000 418.212
29.86000 412.144
30.03000 443.474
30.20000 425.969
30.37000 421.134
30.54000 421.772
30.71000 453.475
30.88000 452.004
31.05000 590.625
31.22000 1553.944
31.39000 3039.144
31.56000 1620.249
31.73000 584.714
31.90000 439.250
32.07000 397.086
32.24000 399.803
32.41000 392.150
32.58000 381.438
32.75000 369.426
32.92000 372.824
33.09000 372.628
33.26000 359.954
33.43000 347.224
33.60000 341.520
33.77000 349.490
33.94000 365.601
34.11000 361.245
34.28000 324.724
34.45000 354.687
34.62000 353.066
34.79000 333.390
34.96000 338.036
35.13000 323.958
35.30000 331.386
35.47000 296.891
35.64000 310.324
35.81000 302.255
35.98000 311.097
36.15000 316.482
36.32000 298.166
36.49000 303.687
36.66000 300.837
36.83000 298.343
37.00000 295.450
37.17000 315.356
37.34000 306.524
37.51000 290.792
37.68000 300.132
37.85000 288.850
38.02000 295.694
38.19000 308.850
38.36000 330.327
38.53000 535.929
38.70000 1000.130
38.87000 772.037
39.04000 367.705
39.21000 276.118
39.38000 292.320
39.55000 279.029
39.72000 270.207
39.89000 274.689
40.06000 262.043
40.23000 261.253
40.40000 259.754
40.57000 255.322
40.74000 258.490
40.91000 259.773
41.08000 255.048
41.25000 250.764
41.42000 247.267
41.59000 251.780
41.76000 229.481
41.93000 241.758
42.10000 250.135
42.27000 244.583
42.44000 230.375
42.61000 234.819
42.78000 230.792
42.95000 231.739
43.12000 215.370
43.29000 226.843
43.46000 229.645
43.63000 232.064
43.80000 229.695
43.97000 220.589
44.14000 217.901
44.31000 231.219
44.48000 236.017
44.65000 228.603
44.82000 258.904
44.99000 292.159
45.16000 322.530
45.33000 281.377
45.50000 252.995
45.67000 215.619
45.84000 215.808
46.01000 209.056
46.18000 200.157
46.35000 213.519
46.52000 213.690
46.69000 194.709
46.86000 206.934
47.03000 189.176
47.20000 190.260
47.37000 193.567
47.54000 192.204
47.71000 188.860
47.88000 187.110
48.05000 180.036
48.22000 182.287
48.39000 171.694
48.56000 180.935
48.73000 179.611
48.90000 179.942
49.07000 171.159
49.24000 179.458
49.41000 171.540
49.58000 190.454
49.75000 171.096
49.92000 175.313
50.09000 170.682
50.26000 190.199
50.43000 182.663
50.60000 222.036
50.77000 246.871
50.94000 205.626
51.11000 175.143
51.28000 163.471
51.45000 154.115
51.62000 163.257
51.79000 158.710
51.96000 160.165
52.13000 167.800
52.30000 156.831
52.47000 159.281
52.64000 156.661
52.81000 161.745
52.98000 149.944
53.15000 151.191
53.32000 171.259
53.49000 155.972
53.66000 155.991
53.83000 155.186
54.00000 155.966
54.17000 152.520
54.34000 157.000
54.51000 147.355
54.68000 141.658
54.85000 159.472
55.02000 155.476
55.19000 157.470
55.36000 175.308
55.53000 185.811
55.70000 291.440
55.87000 549.237
56.04000 584.345
56.21000 314.481
56.38000 202.880
56.55000 164.845
56.72000 150.346
56.89000 149.452
57.06000 148.777
57.23000 137.199
57.40000 139.168
57.57000 149.487
57.74000 135.593
57.91000 150.777
58.08000 135.402
58.25000 140.131
58.42000 138.269
58.59000 140.469
58.76000 144.181
58.93000 137.889
59.10000 131.660
59.27000 142.064
59.44000 124.341
59.61000 136.184
59.78000 141.427
59.95000 128.452
60.12000 136.720
60.29000 131.457
60.46000 127.012
60.63000 141.567
60.80000 140.061
60.97000 134.809
61.14000 145.609
61.31000 133.674
61.48000 142.653
61.65000 225.215
61.82000 194.412
61.99000 138.283
62.16000 132.296
62.33000 132.698
62.50000 139.989
62.67000 141.956
62.84000 153.015
63.01000 144.112
63.18000 154.684
63.35000 138.548
63.52000 151.673
63.69000 155.849
63.86000 145.440
64.03000 160.714
64.20000 163.113
64.37000 168.458
64.54000 151.963
64.71000 172.370
64.88000 175.745
65.05000 195.153
65.22000 218.676
65.39000 285.868
65.56000 382.478
65.73000 562.962
65.90000 911.186
66.07000 345.968
66.24000 294.148
66.41000 377.567
66.58000 304.041
66.75000 303.485
66.92000 294.211
67.09000 316.720
67.26000 334.233
67.43000 380.358
67.60000 407.734
67.77000 419.278
67.94000 465.579
68.11000 533.981
68.28000 581.372
68.45000 657.441
68.62000 882.981
68.79000 1592.584
68.96000 9224.205
69.13000 46987.801
69.30000 28230.637
69.47000 6880.082
69.64000 1106.277
69.81000 775.896
69.98000 637.117
70.00000 646.340

File: BTO_Mapping_Theta2Theta_30-09-2025_001_16_9-271_28-532.xy
20.00000 571.452
20.17000 545.447
20.34000 545.609
20.51000 572.139
20.68000 541.346
20.85000 567.506
21.02000 539.143
21.19000 560.846
21.36000 531.259
21.53000 546.138
21.70000 560.176
21.87000 586.709
22.04000 641.380
22.21000 622.889
22.38000 548.701
22.55000 506.236
22.72000 542.052
22.89000 522.927
23.06000 517.379
23.23000 515.289
23.40000 519.569
23.57000 499.094
23.74000 519.922
23.91000 540.377
24.08000 526.309
24.25000 515.493
24.42000 489.172
24.59000 494.275
24.76000 480.913
24.93000 472.053
25.10000 496.881
25.27000 473.176
25.44000 477.390
25.61000 448.798
25.78000 464.971
25.95000 456.964
26.12000 455.823
26.29000 456.020
26.46000 459.921
26.63000 459.119
26.80000 453.445
26.97000 439.967
27.14000 434.652
27.31000 460.098
27.48000 441.921
27.65000 458.050
27.82000 433.978
27.99000 448.766
28.16000 426.792
28.33000 444.353
28.50000 423.982
28.67000 419.121
28.84000 418.403
29.01000 413.954
29.18000 397.676
29.35000 389.008
29.52000 414.353
29.69000 418.286
29.86000 425.160
30.03000 434.599
30.20000 422.304
30.37000 410.156
30.54000 424.329
30.71000 424.843
30.88000 433.719
31.05000 551.695
31.22000 1269.430
31.39000 2358.501
31.56000 1341.658
31.73000 550.484
31.90000 436.807
32.07000 409.409
32.24000 389.269
32.41000 396.691
32.58000 361.316
32.75000 368.269
32.92000 371.501
33.09000 371.202
33.26000 342.912
33.43000 350.630
33.60000 327.669
33.77000 347.917
33.94000 366.194
34.11000 363.898
34.28000 358.271
34.45000 369.487
34.62000 348.604
34.79000 355.786
34.96000 338.307
35.13000 321.321
35.30000 318.926
35.47000 306.987
35.64000 307.365
35.81000 311.685
35.98000 315.283
36.15000 291.958
36.32000 296.941
36.49000 304.711
36.66000 315.628
36.83000 314.465
37.00000 323.869
37.17000 317.358
37.34000 299.193
37.51000 294.458
37.68000 297.995
37.85000 287.127
38.02000 286.142
38.19000 312.267
38.36000 339.286
38.53000 576.200
38.70000 1132.852
38.87000 891.710
39.04000 386.951
39.21000 296.024
39.38000 284.494
39.55000 275.480
39.72000 262.492
39.89000 275.583
40.06000 265.565
40.23000 264.276
40.40000 270.103
40.57000 268.618
40.74000 241.864
40.91000 241.435
41.08000 248.539
41.25000 239.483
41.42000 249.888
41.59000 246.232
41.76000 240.109
41.93000 244.273
42.10000 242.558
42.27000 237.501
42.44000 242.007
42.61000 246.438
42.78000 241.302
42.95000 234.746
43.12000 225.745
43.29000 221.695
43.46000 226.230
43.63000 225.743
43.80000 215.319
43.97000 226.264
44.14000 219.234
44.31000 223.135
44.48000 226.344
44.65000 225.659
44.82000 240.282
44.99000 295.995
45.16000 303.091
45.33000 266.075
45.50000 222.031
45.67000 224.446
45.84000 222.727
46.01000 208.022
46.18000 203.331
46.35000 207.689
46.52000 197.903
46.69000 202.077
46.86000 200.466
47.03000 193.615
47.20000 188.083
47.37000 197.389
47.54000 190.795
47.71000 189.838
47.88000 175.892
48.05000 187.162
48.22000 183.203
48.39000 176.341
48.56000 176.196
48.73000 182.703
48.90000 189.127
49.07000 185.216
49.24000 177.363
49.41000 184.210
49.58000 169.453
49.75000 187.138
49.92000 178.908
50.09000 191.672
50.26000 188.148
50.43000 177.061
50.60000 223.586
50.77000 219.301
50.94000 212.164
51.11000 190.613
51.28000 172.735
51.45000 169.126
51.62000 160.380
51.79000 161.107
51.96000 162.372
52.13000 154.145
52.30000 158.519
52.47000 165.486
52.64000 161.677
52.81000 154.474
52.98000 160.127
53.15000 171.389
53.32000 165.800
53.49000 154.323
53.66000 159.369
53.83000 165.065
54.00000 162.200
54.17000 166.055
54.34000 147.683
54.51000 156.888
54.68000 151.977
54.85000 157.124
55.02000 150.818
55.19000 174.676
55.36000 162.559
55.53000 191.723
55.70000 294.251
55.87000 563.571
56.04000 571.034
56.21000 361.561
56.38000 190.318
56.55000 161.438
56.72000 149.750
56.89000 152.161
57.06000 143.993
57.23000 152.823
57.40000 138.650
57.57000 138.468
57.74000 152.435
57.91000 141.362
58.08000 133.653
58.25000 137.505
58.42000 145.566
58.59000 139.067
58.76000 130.794
58.93000 131.218
59.10000 137.082
59.27000 129.915
59.44000 141.299
59.61000 136.387
59.78000 140.948
59.95000 137.286
60.12000 131.523
60.29000 136.377
60.46000 135.524
60.63000 128.492
60.80000 119.787
60.97000 134.207
61.14000 133.749
61.31000 143.083
61.48000 140.500
61.65000 240.660
61.82000 183.956
61.99000 140.195
62.16000 135.631
62.33000 129.520
62.50000 137.148
62.67000 147.091
62.84000 141.456
63.01000 134.188
63.18000 145.806
63.35000 138.631
63.52000 143.703
63.69000 153.435
63.86000 151.569
64.03000 154.372
64.20000 150.231
64.37000 151.306
64.54000 171.760
64.71000 168.348
64.88000 178.440
65.05000 201.002
65.22000 220.495
65.39000 263.875
65.56000 324.924
65.73000 553.275
65.90000 901.593
66.07000 333.848
66.24000 289.305
66.41000 393.294
66.58000 308.762
66.75000 289.925
66.92000 327.000
67.09000 333.379
67.26000 350.504
67.43000 382.430
67.60000 416.660
67.77000 446.156
67.94000 462.221
68.11000 520.859
68.28000 570.442
68.45000 676.174
68.62000 893.955
68.79000 1640.266
68.96000 9635.925
69.13000 47733.707
69.30000 28156.402
69.47000 6708.283
69.64000 1101.235
69.81000 783.129
69.98000 643.408
70.00000 651.782

File: BTO_Mapping_Theta2Theta_30-09-2025_001_19_-2-091_19-890.xy
20.00000 566.938
20.17000 563.815
20.34000 570.517
20.51000 569.221
20.68000 552.201
20.85000 538.011
21.02000 546.542
21.19000 538.952
21.36000 567.499
21.53000 562.161
21.70000 553.750
21.87000 575.608
22.04000 641.849
22.21000 598.660
22.38000 566.312
22.55000 526.422
22.72000 537.088
22.89000 503.032
23.06000 509.455
23.23000 521.731
23.40000 506.821
23.57000 514.592
23.74000 499.683
23.91000 525.929
24.08000 527.023
24.25000 528.641
24.42000 503.443
24.59000 474.565
24.76000 496.832
24.93000 477.525
25.10000 472.396
25.27000 475.229
25.44000 465.185
25.61000 467.960
25.78000 452.686
25.95000 484.173
26.12000 465.863
26.29000 474.025
26.46000 461.189
26.63000 468.144
26.80000 437.007
26.97000 447.781
27.14000 436.246
27.31000 440.366
27.48000 449.130
27.65000 444.843
27.82000 445.825
27.99000 443.759
28.16000 441.961
28.33000 437.358
28.50000 439.187
28.67000 418.415
28.84000 404.612
29.01000 429.516
29.18000 418.311
29.35000 404.604
29.52000 406.871
29.69000 424.242
29.86000 425.894
30.03000 431.866
30.20000 438.219
30.37000 410.962
30.54000 406.437
30.71000 407.074
30.88000 471.156
31.05000 550.432
31.22000 1443.673
31.39000 2830.598
31.56000 1548.538
31.73000 555.841
31.90000 441.618
32.07000 412.917
32.24000 391.796
32.41000 393.032
32.58000 375.571
32.75000 382.995
32.92000 374.617
33.09000 392.332
33.26000 345.174
33.43000 332.314
33.60000 349.743
33.77000 354.909
33.94000 342.461
34.11000 329.657
34.28000 354.382
34.45000 344.566
34.62000 333.055
34.79000 358.870
34.96000 323.312
35.13000 318.942
35.30000 304.541
35.47000 327.478
35.64000 303.479
35.81000 308.005
35.98000 289.515
36.15000 303.495
36.32000 297.146
36.49000 297.825
36.66000 308.346
36.83000 298.417
37.00000 307.346
37.17000 284.575
37.34000 296.044
37.51000 286.630
37.68000 297.167
37.85000 281.613
38.02000 309.726
38.19000 300.134
38.36000 333.136
38.53000 518.695
38.70000 1068.161
38.87000 859.076
39.04000 390.346
39.21000 288.629
39.38000 274.020
39.55000 290.579
39.72000 279.534
39.89000 263.318
40.06000 266.165
40.23000 273.833
40.40000 253.497
40.57000 260.237
40.74000 243.584
40.91000 255.267
41.08000 248.909
41.25000 242.392
41.42000 243.426
41.59000 248.450
41.76000 243.687
41.93000 251.682
42.10000 242.237
42.27000 241.211
42.44000 241.968
42.61000 231.429
42.78000 230.119
42.95000 235.614
43.12000 222.893
43.29000 233.628
43.46000 219.769
43.63000 241.472
43.80000 225.904
43.97000 223.579
44.14000 230.202
44.31000 220.874
44.48000 219.257
44.65000 232.396
44.82000 243.408
44.99000 292.347
45.16000 318.454
45.33000 267.974
45.50000 233.688
45.67000 216.186
45.84000 203.462
46.01000 193.333
46.18000 208.688
46.35000 202.367
46.52000 207.246
46.69000 197.011
46.86000 189.560
47.03000 186.028
47.20000 194.290
47.37000 199.207
47.54000 187.461
47.71000 197.562
47.88000 183.129
48.05000 194.408
48.22000 185.333
48.39000 207.128
48.56000 184.325
48.73000 178.729
48.90000 178.975
49.07000 179.111
49.24000 182.023
49.41000 173.241
49.58000 180.414
49.75000 184.159
49.92000 175.081
50.09000 185.684
50.26000 182.084
50.43000 184.307
50.60000 221.386
50.77000 239.874
50.94000 210.144
51.11000 176.917
51.28000 177.065
51.45000 169.286
51.62000 167.972
51.79000 153.526
51.96000 164.644
52.13000 157.211
52.30000 167.113
52.47000 161.625
52.64000 161.675
52.81000 154.913
52.98000 160.982
53.15000 150.558
53.32000 159.607
53.49000 155.380
53.66000 158.397
53.83000 159.085
54.00000 158.207
54.17000 159.289
54.34000 155.530
54.51000 162.740
54.68000 157.394
54.85000 152.969
55.02000 158.044
55.19000 160.783
55.36000 174.421
55.53000 203.879
55.70000 312.964
55.87000 556.861
56.04000 563.703
56.21000 360.941
56.38000 207.139
56.55000 174.518
56.72000 162.382
56.89000 143.713
57.06000 142.724
57.23000 150.274
57.40000 160.044
57.57000 144.980
57.74000 139.041
57.91000 143.444
58.08000 140.356
58.25000 150.630
58.42000 139.223
58.59000 140.321
58.76000 135.860
58.93000 128.384
59.10000 134.879
59.27000 138.573
59.44000 130.183
59.61000 130.242
59.78000 132.993
59.95000 132.811
60.12000 136.407
60.29000 136.446
60.46000 137.669
60.63000 127.146
60.80000 146.050
60.97000 129.329
61.14000 134.757
61.31000 143.686
61.48000 141.736
61.65000 232.510
61.82000 190.053
61.99000 152.513
62.16000 145.717
62.33000 140.808
62.50000 137.772
62.67000 136.141
62.84000 146.696
63.01000 151.459
63.18000 150.354
63.35000 144.882
63.52000 144.655
63.69000 148.045
63.86000 153.346
64.03000 145.556
64.20000 170.612
64.37000 164.399
64.54000 167.978
64.71000 168.540
64.88000 175.034
65.05000 190.264
65.22000 224.313
65.39000 293.759
65.56000 385.731
65.73000 561.012
65.90000 898.938
66.07000 348.139
66.24000 281.480
66.41000 393.469
66.58000 326.111
66.75000 296.211
66.92000 305.534
67.09000 326.754
67.26000 371.628
67.43000 376.986
67.60000 382.712
67.77000 444.163
67.94000 470.689
68.11000 510.140
68.28000 563.580
68.45000 660.151
68.62000 906.827
68.79000 1581.794
68.96000 8536.381
69.13000 47145.301
69.30000 28602.879
69.47000 7390.185
69.64000 1109.873
69.81000 787.523
69.98000 660.518
70.00000 655.549

File: BTO_Mapping_Theta2Theta_30-09-2025_001_20_-3-136_29-836.xy
20.00000 561.260
20.17000 573.925
20.34000 575.848
20.51000 555.840
20.68000 542.218
20.85000 567.312
21.02000 554.507
21.19000 545.562
21.36000 550.189
21.53000 550.532
21.70000 573.704
21.87000 591.523
22.04000 662.163
22.21000 628.459
22.38000 556.449
22.55000 527.618
22.72000 530.269
22.89000 549.222
23.06000 525.324
23.23000 520.471
23.40000 517.096
23.57000 502.575
23.74000 516.575
23.91000 523.570
24.08000 545.425
24.25000 518.042
24.42000 515.764
24.59000 488.359
24.76000 471.341
24.93000 456.981
25.10000 491.312
25.27000 469.561
25.44000 479.188
25.61000 467.074
25.78000 469.861
25.95000 453.823
26.12000 434.403
26.29000 460.893
26.46000 443.064
26.63000 455.429
26.80000 468.911
26.97000 438.973
27.14000 443.522
27.31000 435.799
27.48000 444.272
27.65000 446.921
27.82000 420.332
27.99000 424.845
28.16000 425.800
28.33000 435.974
28.50000 430.681
28.67000 434.351
28.84000 421.288
29.01000 411.941
29.18000 410.133
29.35000 405.360
29.52000 394.610
29.69000 414.299
29.86000 434.060
30.03000 424.035
30.20000 436.391
30.37000 429.788
30.54000 410.849
30.71000 420.977
30.88000 440.421
31.05000 540.858
31.22000 1134.177
31.39000 2020.097
31.56000 1183.714
31.73000 558.063
31.90000 418.550
32.07000 406.143
32.24000 392.660
32.41000 385.593
32.58000 385.357
32.75000 380.750
32.92000 385.540
33.09000 386.515
33.26000 338.341
33.43000 353.909
33.60000 348.194
33.77000 348.456
33.94000 343.885
34.11000 360.608
34.28000 368.519
34.45000 390.186
34.62000 348.285
34.79000 341.820
34.96000 326.416
35.13000 325.054
35.30000 320.036
35.47000 313.804
35.64000 329.187
35.81000 309.565
35.98000 304.432
36.15000 304.576
36.32000 289.632
36.49000 296.647
36.66000 311.966
36.83000 298.188
37.00000 303.250
37.17000 296.562
37.34000 292.770
37.51000 301.525
37.68000 290.669
37.85000 285.619
38.02000 296.550
38.19000 304.040
38.36000 311.516
38.53000 545.415
38.70000 1063.034
38.87000 874.000
39.04000 383.792
39.21000 299.344
39.38000 285.075
39.55000 291.203
39.72000 278.158
39.89000 266.260
40.06000 266.414
40.23000 267.273
40.40000 263.842
40.57000 248.721
40.74000 262.706
40.91000 261.689
41.08000 260.366
41.25000 249.769
41.42000 236.317
41.59000 243.965
41.76000 258.349
41.93000 237.274
42.10000 249.653
42.27000 251.738
42.44000 230.960
42.61000 237.833
42.78000 240.394
42.95000 235.076
43.12000 233.436
43.29000 229.108
43.46000 212.433
43.63000 221.551
43.80000 222.738
43.97000 224.730
44.14000 211.797
44.31000 221.106
44.48000 237.485
44.65000 233.515
44.82000 247.528
44.99000 304.817
45.16000 302.936
45.33000 270.464
45.50000 241.934
45.67000 212.084
45.84000 205.811
46.01000 201.722
46.18000 213.411
46.35000 211.707
46.52000 212.555
46.69000 199.631
46.86000 210.058
47.03000 198.516
47.20000 197.084
47.37000 187.360
47.54000 193.206
47.71000 195.151
47.88000 201.462
48.05000 190.150
48.22000 176.187
48.39000 182.539
48.56000 187.523
48.73000 169.724
48.90000 182.684
49.07000 184.148
49.24000 168.814
49.41000 174.478
49.58000 172.937
49.75000 168.731
49.92000 177.151
50.09000 165.059
50.26000 182.906
50.43000 173.149
50.60000 209.795
50.77000 217.381
50.94000 196.056
51.11000 179.848
51.28000 168.578
51.45000 170.196
51.62000 162.735
51.79000 161.484
51.96000 162.098
52.13000 172.132
52.30000 156.641
52.47000 155.822
52.64000 165.781
52.81000 163.388
52.98000 155.678
53.15000 151.435
53.32000 167.191
53.49000 160.901
53.66000 164.010
53.83000 159.437
54.00000 155.581
54.17000 150.442
54.34000 150.244
54.51000 160.784
54.68000 160.773
54.85000 164.986
55.02000 158.059
55.19000 172.561
55.36000 176.418
55.53000 184.321
55.70000 291.620
55.87000 549.153
56.04000 558.372
56.21000 341.825
56.38000 208.410
56.55000 174.689
56.72000 162.565
56.89000 160.121
57.06000 143.112
57.23000 143.504
57.40000 150.787
57.57000 146.330
57.74000 142.127
57.91000 139.088
58.08000 138.378
58.25000 136.036
58.42000 132.729
58.59000 131.957
58.76000 128.809
58.93000 139.318
59.10000 129.321
59.27000 136.914
59.44000 133.315
59.61000 131.684
59.78000 138.115
59.95000 134.786
60.12000 137.282
60.29000 133.667
60.46000 131.489
60.63000 142.859
60.80000 128.764
60.97000 144.289
61.14000 129.626
61.31000 145.971
61.48000 141.308
61.65000 234.712
61.82000 188.163
61.99000 132.465
62.16000 150.361
62.33000 143.700
62.50000 143.658
62.67000 145.638
62.84000 145.288
63.01000 138.454
63.18000 146.901
63.35000 152.066
63.52000 149.225
63.69000 143.831
63.86000 160.656
64.03000 142.307
64.20000 151.876
64.37000 162.373
64.54000 164.915
64.71000 170.374
64.88000 184.968
65.05000 193.322
65.22000 214.583
65.39000 268.279
65.56000 305.213
65.73000 531.269
65.90000 907.262
66.07000 328.167
66.24000 280.913
66.41000 399.690
66.58000 321.259
66.75000 297.730
66.92000 298.913
67.09000 328.588
67.26000 355.195
67.43000 360.079
67.60000 419.124
67.77000 440.183
67.94000 472.434
68.11000 541.378
68.28000 573.073
68.45000 663.269
68.62000 877.423
68.79000 1630.509
68.96000 8609.380
69.13000 47941.980
69.30000 29269.795
69.47000 7504.375
69.64000 1136.104
69.81000 790.861
69.98000 645.656
70.00000 624.813