Folder: Master-Thesis/XRD/30-09-2025 Dep 1/XY Data (part 3)

File: BTO_Mapping_Theta2Theta_30-09-2025_001_24_-15-000_25-981.xy
20.00000 575.284
20.17000 570.922
20.34000 582.642
20.51000 565.357
20.68000 568.492
20.85000 556.045
21.02000 547.946
21.19000 543.359
21.36000 533.823
21.53000 532.746
21.70000 536.616
21.87000 572.427
22.04000 651.780
22.21000 609.397
22.38000 556.086
22.55000 526.501
22.72000 522.953
22.89000 495.074
23.06000 492.917
23.23000 549.427
23.40000 500.337
23.57000 520.363
23.74000 501.962
23.91000 525.353
24.08000 529.600
24.25000 534.899
24.42000 487.377
24.59000 471.661
24.76000 488.642
24.93000 485.783
25.10000 489.800
25.27000 457.268
25.44000 481.570
25.61000 455.795
25.78000 465.342
25.95000 457.637
26.12000 448.567
26.29000 461.241
26.46000 468.345
26.63000 459.228
26.80000 443.213
26.97000 462.528
27.14000 446.996
27.31000 445.937
27.48000 452.311
27.65000 436.175
27.82000 441.385
27.99000 432.461
28.16000 423.747
28.33000 422.131
28.50000 424.951
28.67000 418.874
28.84000 412.062
29.01000 419.346
29.18000 418.850
29.35000 416.862
29.52000 424.417
29.69000 424.981
29.86000 413.088
30.03000 430.003
30.20000 425.386
30.37000 417.797
30.54000 414.266
30.71000 423.343
30.88000 435.438
31.05000 540.262
31.22000 1124.010
31.39000 2007.549
31.56000 1245.587
31.73000 550.272
31.90000 434.938
32.07000 404.218
32.24000 378.918
32.41000 409.133
32.58000 347.197
32.75000 362.918
32.92000 376.908
33.09000 368.619
33.26000 336.917
33.43000 350.336
33.60000 332.696
33.77000 340.911
33.94000 352.974
34.11000 347.909
34.28000 350.357
34.45000 378.171
34.62000 338.497
34.79000 341.682
34.96000 316.249
35.13000 332.149
35.30000 318.835
35.47000 317.422
35.64000 310.417
35.81000 309.887
35.98000 311.309
36.15000 317.387
36.32000 298.560
36.49000 297.724
36.66000 302.637
36.83000 299.318
37.00000 308.703
37.17000 314.230
37.34000 318.635
37.51000 295.994
37.68000 309.159
37.85000 291.307
38.02000 287.010
38.19000 297.471
38.36000 328.595
38.53000 513.707
38.70000 1075.714
38.87000 905.310
39.04000 406.683
39.21000 304.002
39.38000 272.795
39.55000 275.151
39.72000 270.559
39.89000 286.299
40.06000 271.534
40.23000 261.094
40.40000 251.692
40.57000 263.819
40.74000 261.618
40.91000 239.553
41.08000 251.071
41.25000 244.242
41.42000 253.390
41.59000 238.690
41.76000 243.286
41.93000 235.703
42.10000 242.582
42.27000 251.264
42.44000 243.041
42.61000 240.729
42.78000 230.334
42.95000 228.187
43.12000 235.563
43.29000 226.163
43.46000 218.812
43.63000 234.022
43.80000 223.179
43.97000 229.771
44.14000 223.434
44.31000 220.809
44.48000 232.770
44.65000 230.823
44.82000 268.136
44.99000 304.328
45.16000 312.950
45.33000 275.460
45.50000 219.009
45.67000 213.224
45.84000 202.664
46.01000 210.808
46.18000 201.320
46.35000 213.180
46.52000 207.795
46.69000 213.081
46.86000 200.291
47.03000 204.728
47.20000 182.424
47.37000 189.526
47.54000 192.679
47.71000 186.178
47.88000 184.736
48.05000 195.893
48.22000 179.040
48.39000 182.620
48.56000 174.848
48.73000 178.013
48.90000 175.160
49.07000 179.536
49.24000 183.128
49.41000 175.625
49.58000 174.414
49.75000 186.940
49.92000 173.755
50.09000 168.593
50.26000 181.753
50.43000 188.979
50.60000 211.533
50.77000 225.453
50.94000 186.494
51.11000 165.207
51.28000 171.656
51.45000 161.757
51.62000 168.357
51.79000 166.341
51.96000 162.285
52.13000 167.280
52.30000 166.110
52.47000 157.960
52.64000 147.389
52.81000 153.081
52.98000 171.593
53.15000 177.573
53.32000 169.270
53.49000 163.235
53.66000 160.246
53.83000 169.192
54.00000 150.596
54.17000 152.125
54.34000 150.864
54.51000 157.058
54.68000 156.393
54.85000 169.557
55.02000 163.067
55.19000 161.032
55.36000 165.364
55.53000 187.000
55.70000 297.621
55.87000 510.287
56.04000 557.105
56.21000 347.003
56.38000 209.637
56.55000 174.407
56.72000 169.374
56.89000 147.633
57.06000 146.433
57.23000 142.264
57.40000 136.312
57.57000 147.138
57.74000 143.232
57.91000 135.760
58.08000 149.900
58.25000 140.158
58.42000 141.489
58.59000 134.635
58.76000 126.456
58.93000 134.454
59.10000 135.553
59.27000 134.268
59.44000 137.928
59.61000 130.530
59.78000 126.202
59.95000 130.967
60.12000 130.245
60.29000 135.474
60.46000 129.258
60.63000 127.424
60.80000 128.352
60.97000 130.127
61.14000 130.178
61.31000 127.556
61.48000 147.640
61.65000 237.411
61.82000 194.668
61.99000 136.816
62.16000 139.276
62.33000 148.671
62.50000 138.591
62.67000 146.004
62.84000 145.387
63.01000 139.614
63.18000 138.250
63.35000 143.186
63.52000 147.134
63.69000 154.334
63.86000 152.619
64.03000 146.257
64.20000 167.812
64.37000 152.294
64.54000 165.600
64.71000 170.471
64.88000 179.248
65.05000 191.424
65.22000 211.682
65.39000 269.159
65.56000 317.422
65.73000 492.723
65.90000 922.302
66.07000 330.061
66.24000 289.024
66.41000 385.779
66.58000 334.462
66.75000 293.106
66.92000 319.301
67.09000 335.398
67.26000 342.903
67.43000 387.765
67.60000 403.714
67.77000 444.223
67.94000 485.550
68.11000 506.581
68.28000 569.630
68.45000 660.842
68.62000 894.331
68.79000 1609.332
68.96000 7738.356
69.13000 47793.246
69.30000 29948.746
69.47000 8146.979
69.64000 1158.149
69.81000 776.575
69.98000 654.158
70.00000 635.195

File: BTO_Mapping_Theta2Theta_30-09-2025_001_25_-20-000_34-641.xy
20.00000 579.782
20.17000 581.383
20.34000 561.688
20.51000 565.918
20.68000 565.112
20.85000 562.110
21.02000 534.428
21.19000 559.982
21.36000 550.258
21.53000 568.448
21.70000 571.065
21.87000 597.728
22.04000 672.495
22.21000 654.907
22.38000 557.063
22.55000 540.629
22.72000 525.805
22.89000 531.110
23.06000 499.742
23.23000 516.267
23.40000 521.167
23.57000 518.862
23.74000 530.758
23.91000 543.953
24.08000 562.009
24.25000 501.534
24.42000 514.652
24.59000 500.923
24.76000 494.443
24.93000 493.513
25.10000 477.468
25.27000 459.728
25.44000 468.920
25.61000 459.147
25.78000 462.166
25.95000 454.859
26.12000 465.036
26.29000 418.096
26.46000 436.981
26.63000 437.518
26.80000 447.372
26.97000 429.586
27.14000 436.357
27.31000 442.063
27.48000 440.087
27.65000 422.968
27.82000 431.181
27.99000 448.274
28.16000 440.028
28.33000 424.456
28.50000 427.435
28.67000 418.616
28.84000 417.188
29.01000 405.344
29.18000 396.688
29.35000 403.890
29.52000 419.337
29.69000 398.806
29.86000 406.500
30.03000 418.718
30.20000 419.802
30.37000 423.233
30.54000 400.198
30.71000 419.780
30.88000 439.851
31.05000 534.216
31.22000 912.828
31.39000 1554.087
31.56000 1096.827
31.73000 536.234
31.90000 423.764
32.07000 414.227
32.24000 398.857
32.41000 386.210
32.58000 368.116
32.75000 383.352
32.92000 377.475
33.09000 383.469
33.26000 359.269
33.43000 344.703
33.60000 348.142
33.77000 335.740
33.94000 341.146
34.11000 386.467
34.28000 362.299
34.45000 364.415
34.62000 360.857
34.79000 344.429
34.96000 329.093
35.13000 316.754
35.30000 311.542
35.47000 299.901
35.64000 323.909
35.81000 309.608
35.98000 298.435
36.15000 331.296
36.32000 311.033
36.49000 304.911
36.66000 282.629
36.83000 277.770
37.00000 283.928
37.17000 307.368
37.34000 305.995
37.51000 294.921
37.68000 298.755
37.85000 293.274
38.02000 288.769
38.19000 294.638
38.36000 322.134
38.53000 457.099
38.70000 869.224
38.87000 757.185
39.04000 383.052
39.21000 276.301
39.38000 281.925
39.55000 269.005
39.72000 278.801
39.89000 260.991
40.06000 271.470
40.23000 263.446
40.40000 264.542
40.57000 260.023
40.74000 259.425
40.91000 243.971
41.08000 246.706
41.25000 244.764
41.42000 255.028
41.59000 241.371
41.76000 245.440
41.93000 249.136
42.10000 248.783
42.27000 235.564
42.44000 249.944
42.61000 236.876
42.78000 227.116
42.95000 233.030
43.12000 227.573
43.29000 227.969
43.46000 228.540
43.63000 229.877
43.80000 223.620
43.97000 219.317
44.14000 223.794
44.31000 224.916
44.48000 236.184
44.65000 242.003
44.82000 264.301
44.99000 312.413
45.16000 328.167
45.33000 286.359
45.50000 243.693
45.67000 229.281
45.84000 207.683
46.01000 208.814
46.18000 211.154
46.35000 213.327
46.52000 202.742
46.69000 206.426
46.86000 179.825
47.03000 199.661
47.20000 200.817
47.37000 200.112
47.54000 188.339
47.71000 193.566
47.88000 182.184
48.05000 186.602
48.22000 184.103
48.39000 191.104
48.56000 176.879
48.73000 171.561
48.90000 178.936
49.07000 181.069
49.24000 172.338
49.41000 179.666
49.58000 184.515
49.75000 165.814
49.92000 170.066
50.09000 170.936
50.26000 174.299
50.43000 187.079
50.60000 203.640
50.77000 210.777
50.94000 185.077
51.11000 176.988
51.28000 169.728
51.45000 158.624
51.62000 153.248
51.79000 165.141
51.96000 163.462
52.13000 163.784
52.30000 160.966
52.47000 161.046
52.64000 168.126
52.81000 155.017
52.98000 157.127
53.15000 157.618
53.32000 164.353
53.49000 164.564
53.66000 159.765
53.83000 154.945
54.00000 161.277
54.17000 157.606
54.34000 154.305
54.51000 162.425
54.68000 152.367
54.85000 170.295
55.02000 163.032
55.19000 164.559
55.36000 171.710
55.53000 191.755
55.70000 263.570
55.87000 449.772
56.04000 484.979
56.21000 326.827
56.38000 206.057
56.55000 157.193
56.72000 153.935
56.89000 148.918
57.06000 150.230
57.23000 144.001
57.40000 145.322
57.57000 136.566
57.74000 138.521
57.91000 144.067
58.08000 147.837
58.25000 147.414
58.42000 144.910
58.59000 138.094
58.76000 142.918
58.93000 122.688
59.10000 138.622
59.27000 135.362
59.44000 134.773
59.61000 136.997
59.78000 132.517
59.95000 142.356
60.12000 132.953
60.29000 127.988
60.46000 130.748
60.63000 133.768
60.80000 146.273
60.97000 130.006
61.14000 141.743
61.31000 143.131
61.48000 134.236
61.65000 223.793
61.82000 200.260
61.99000 150.916
62.16000 142.229
62.33000 150.022
62.50000 134.520
62.67000 147.268
62.84000 146.947
63.01000 137.078
63.18000 138.202
63.35000 145.130
63.52000 151.341
63.69000 150.018
63.86000 156.642
64.03000 155.833
64.20000 152.258
64.37000 162.087
64.54000 165.466
64.71000 175.748
64.88000 179.488
65.05000 184.531
65.22000 200.514
65.39000 244.259
65.56000 286.629
65.73000 468.191
65.90000 889.564
66.07000 359.156
66.24000 278.493
66.41000 398.608
66.58000 340.710
66.75000 299.881
66.92000 319.095
67.09000 359.360
67.26000 379.119
67.43000 396.421
67.60000 430.146
67.77000 457.749
67.94000 480.112
68.11000 532.645
68.28000 580.340
68.45000 672.544
68.62000 906.090
68.79000 1596.461
68.96000 6446.483
69.13000 48696.121
69.30000 32317.158
69.47000 9705.436
69.64000 1193.645
69.81000 801.184
69.98000 652.938
70.00000 648.311

File: BTO_Mapping_Theta2Theta_30-09-2025_001_26_-8-090_5-878.xy
20.00000 573.720
20.17000 565.846
20.34000 569.506
20.51000 558.621
20.68000 555.712
20.85000 557.883
21.02000 551.260
21.19000 564.569
21.36000 531.900
21.53000 548.156
21.70000 577.645
21.87000 603.633
22.04000 714.391
22.21000 624.630
22.38000 538.544
22.55000 526.974
22.72000 527.613
22.89000 514.839
23.06000 553.426
23.23000 514.002
23.40000 502.189
23.57000 508.473
23.74000 507.875
23.91000 525.290
24.08000 519.091
24.25000 522.559
24.42000 495.969
24.59000 484.100
24.76000 487.662
24.93000 478.777
25.10000 468.616
25.27000 476.554
25.44000 470.906
25.61000 472.697
25.78000 479.041
25.95000 472.515
26.12000 473.373
26.29000 455.696
26.46000 466.991
26.63000 466.232
26.80000 444.817
26.97000 444.904
27.14000 432.225
27.31000 439.988
27.48000 458.766
27.65000 441.478
27.82000 441.543
27.99000 433.967
28.16000 422.020
28.33000 432.479
28.50000 424.791
28.67000 421.817
28.84000 420.064
29.01000 412.265
29.18000 441.098
29.35000 415.046
29.52000 403.202
29.69000 422.411
29.86000 428.293
30.03000 445.682
30.20000 426.581
30.37000 436.817
30.54000 439.223
30.71000 445.248
30.88000 485.793
31.05000 628.247
31.22000 1725.244
31.39000 3453.772
31.56000 1717.709
31.73000 590.346
31.90000 444.432
32.07000 421.026
32.24000 394.091
32.41000 386.504
32.58000 390.679
32.75000 358.243
32.92000 377.037
33.09000 390.295
33.26000 345.328
33.43000 352.919
33.60000 343.555
33.77000 344.957
33.94000 351.400
34.11000 333.490
34.28000 331.110
34.45000 349.138
34.62000 346.791
34.79000 334.060
34.96000 333.111
35.13000 312.744
35.30000 328.143
35.47000 324.756
35.64000 305.731
35.81000 316.201
35.98000 307.046
36.15000 297.480
36.32000 296.354
36.49000 311.681
36.66000 307.463
36.83000 290.908
37.00000 297.777
37.17000 295.086
37.34000 315.915
37.51000 293.569
37.68000 290.060
37.85000 296.915
38.02000 293.461
38.19000 292.225
38.36000 319.408
38.53000 495.706
38.70000 886.732
38.87000 697.135
39.04000 327.401
39.21000 295.612
39.38000 297.856
39.55000 246.767
39.72000 267.629
39.89000 274.128
40.06000 247.792
40.23000 243.111
40.40000 263.003
40.57000 264.259
40.74000 250.898
40.91000 244.112
41.08000 236.834
41.25000 247.929
41.42000 252.092
41.59000 243.987
41.76000 238.418
41.93000 229.894
42.10000 234.611
42.27000 243.734
42.44000 235.161
42.61000 251.236
42.78000 236.503
42.95000 235.207
43.12000 236.606
43.29000 238.607
43.46000 235.038
43.63000 213.735
43.80000 211.601
43.97000 238.086
44.14000 228.058
44.31000 208.550
44.48000 225.241
44.65000 233.247
44.82000 267.260
44.99000 340.145
45.16000 376.563
45.33000 287.767
45.50000 242.776
45.67000 225.878
45.84000 212.985
46.01000 201.783
46.18000 203.487
46.35000 200.669
46.52000 199.409
46.69000 208.206
46.86000 196.649
47.03000 201.152
47.20000 202.748
47.37000 189.650
47.54000 192.162
47.71000 185.740
47.88000 191.823
48.05000 192.719
48.22000 190.171
48.39000 175.729
48.56000 182.589
48.73000 186.970
48.90000 170.334
49.07000 176.525
49.24000 178.719
49.41000 177.322
49.58000 189.464
49.75000 182.396
49.92000 171.141
50.09000 183.797
50.26000 187.125
50.43000 194.522
50.60000 246.953
50.77000 266.557
50.94000 201.088
51.11000 184.581
51.28000 169.793
51.45000 176.852
51.62000 157.743
51.79000 169.776
51.96000 150.896
52.13000 154.446
52.30000 165.675
52.47000 161.922
52.64000 168.933
52.81000 180.492
52.98000 151.038
53.15000 156.526
53.32000 158.191
53.49000 166.822
53.66000 162.282
53.83000 150.134
54.00000 152.238
54.17000 153.785
54.34000 144.962
54.51000 154.910
54.68000 159.238
54.85000 167.152
55.02000 152.177
55.19000 161.016
55.36000 172.912
55.53000 194.888
55.70000 315.723
55.87000 584.652
56.04000 594.700
56.21000 325.860
56.38000 198.384
56.55000 162.659
56.72000 155.125
56.89000 151.934
57.06000 147.916
57.23000 145.546
57.40000 150.167
57.57000 142.981
57.74000 144.578
57.91000 133.345
58.08000 150.565
58.25000 139.226
58.42000 140.632
58.59000 131.456
58.76000 141.002
58.93000 144.534
59.10000 131.548
59.27000 141.161
59.44000 126.802
59.61000 136.619
59.78000 128.237
59.95000 131.719
60.12000 136.377
60.29000 128.603
60.46000 135.871
60.63000 131.691
60.80000 132.868
60.97000 135.598
61.14000 126.452
61.31000 144.583
61.48000 144.511
61.65000 248.491
61.82000 190.164
61.99000 133.951
62.16000 142.196
62.33000 147.885
62.50000 148.784
62.67000 150.335
62.84000 138.127
63.01000 153.024
63.18000 147.236
63.35000 151.904
63.52000 144.159
63.69000 147.188
63.86000 152.793
64.03000 152.335
64.20000 156.040
64.37000 178.014
64.54000 155.788
64.71000 174.826
64.88000 188.057
65.05000 183.116
65.22000 222.062
65.39000 323.548
65.56000 416.748
65.73000 603.412
65.90000 974.792
66.07000 367.796
66.24000 279.923
66.41000 408.074
66.58000 333.402
66.75000 303.973
66.92000 319.363
67.09000 362.506
67.26000 356.788
67.43000 384.731
67.60000 417.744
67.77000 457.696
67.94000 485.453
68.11000 513.596
68.28000 596.345
68.45000 695.195
68.62000 903.436
68.79000 1676.928
68.96000 8954.760
69.13000 51907.664
69.30000 32156.607
69.47000 8385.803
69.64000 1192.852
69.81000 778.213
69.98000 671.328
70.00000 650.250

File: BTO_Mapping_Theta2Theta_30-09-2025_001_28_-24-271_17-634.xy
20.00000 569.431
20.17000 560.234
20.34000 561.695
20.51000 570.078
20.68000 542.503
20.85000 546.375
21.02000 550.560
21.19000 546.312
21.36000 557.639
21.53000 539.287
21.70000 547.447
21.87000 594.316
22.04000 633.865
22.21000 621.531
22.38000 539.660
22.55000 559.780
22.72000 525.303
22.89000 526.346
23.06000 514.892
23.23000 524.242
23.40000 508.822
23.57000 480.386
23.74000 512.476
23.91000 528.505
24.08000 545.997
24.25000 522.100
24.42000 505.053
24.59000 506.752
24.76000 503.224
24.93000 497.412
25.10000 485.524
25.27000 480.759
25.44000 476.148
25.61000 478.738
25.78000 457.981
25.95000 471.342
26.12000 452.871
26.29000 423.414
26.46000 443.384
26.63000 459.836
26.80000 442.060
26.97000 444.322
27.14000 440.958
27.31000 440.590
27.48000 453.529
27.65000 437.915
27.82000 424.294
27.99000 447.096
28.16000 437.404
28.33000 425.194
28.50000 441.061
28.67000 427.890
28.84000 401.953
29.01000 410.752
29.18000 420.979
29.35000 412.616
29.52000 408.057
29.69000 404.776
29.86000 423.636
30.03000 417.867
30.20000 428.399
30.37000 413.710
30.54000 411.611
30.71000 429.259
30.88000 428.326
31.05000 530.782
31.22000 1101.872
31.39000 2250.491
31.56000 1483.625
31.73000 566.358
31.90000 432.926
32.07000 407.542
32.24000 401.391
32.41000 379.837
32.58000 371.220
32.75000 368.292
32.92000 376.230
33.09000 393.865
33.26000 352.011
33.43000 342.462
33.60000 348.280
33.77000 350.625
33.94000 338.971
34.11000 357.426
34.28000 373.741
34.45000 367.846
34.62000 355.618
34.79000 343.981
34.96000 344.277
35.13000 319.865
35.30000 307.567
35.47000 312.483
35.64000 310.148
35.81000 306.814
35.98000 309.224
36.15000 301.740
36.32000 301.315
36.49000 297.537
36.66000 288.230
36.83000 299.661
37.00000 299.313
37.17000 314.835
37.34000 288.930
37.51000 294.460
37.68000 301.724
37.85000 299.222
38.02000 302.974
38.19000 297.402
38.36000 321.567
38.53000 516.300
38.70000 1060.169
38.87000 987.610
39.04000 414.140
39.21000 309.437
39.38000 272.826
39.55000 272.181
39.72000 269.599
39.89000 275.287
40.06000 261.251
40.23000 246.828
40.40000 243.288
40.57000 258.433
40.74000 250.123
40.91000 254.340
41.08000 241.329
41.25000 246.772
41.42000 246.091
41.59000 234.606
41.76000 238.826
41.93000 248.304
42.10000 242.186
42.27000 234.660
42.44000 239.596
42.61000 236.153
42.78000 227.394
42.95000 222.871
43.12000 229.929
43.29000 224.310
43.46000 217.333
43.63000 224.829
43.80000 223.042
43.97000 222.612
44.14000 217.244
44.31000 233.286
44.48000 237.235
44.65000 236.474
44.82000 254.562
44.99000 264.777
45.16000 295.180
45.33000 261.518
45.50000 239.584
45.67000 214.313
45.84000 213.187
46.01000 207.617
46.18000 210.814
46.35000 214.615
46.52000 209.214
46.69000 214.237
46.86000 201.835
47.03000 193.918
47.20000 193.177
47.37000 192.747
47.54000 197.358
47.71000 185.080
47.88000 178.732
48.05000 173.702
48.22000 190.299
48.39000 182.585
48.56000 186.386
48.73000 178.591
48.90000 179.614
49.07000 169.062
49.24000 185.459
49.41000 182.629
49.58000 177.801
49.75000 178.424
49.92000 184.166
50.09000 195.292
50.26000 186.330
50.43000 196.545
50.60000 204.665
50.77000 215.338
50.94000 209.289
51.11000 173.474
51.28000 168.992
51.45000 161.732
51.62000 171.119
51.79000 168.475
51.96000 159.819
52.13000 171.341
52.30000 158.119
52.47000 164.528
52.64000 154.155
52.81000 161.723
52.98000 166.942
53.15000 172.695
53.32000 163.978
53.49000 155.374
53.66000 160.000
53.83000 149.265
54.00000 169.118
54.17000 148.874
54.34000 154.223
54.51000 155.039
54.68000 143.277
54.85000 155.504
55.02000 154.360
55.19000 159.322
55.36000 161.677
55.53000 194.981
55.70000 277.411
55.87000 503.503
56.04000 589.694
56.21000 364.560
56.38000 221.508
56.55000 167.690
56.72000 147.111
56.89000 148.387
57.06000 150.346
57.23000 139.156
57.40000 140.376
57.57000 150.554
57.74000 148.561
57.91000 139.083
58.08000 143.009
58.25000 136.380
58.42000 142.576
58.59000 137.604
58.76000 135.564
58.93000 146.713
59.10000 147.295
59.27000 127.108
59.44000 139.391
59.61000 132.429
59.78000 134.443
59.95000 138.701
60.12000 137.079
60.29000 127.400
60.46000 132.676
60.63000 136.344
60.80000 137.535
60.97000 138.963
61.14000 130.763
61.31000 133.256
61.48000 145.747
61.65000 230.951
61.82000 207.250
61.99000 137.590
62.16000 140.148
62.33000 147.580
62.50000 142.447
62.67000 132.575
62.84000 148.026
63.01000 144.763
63.18000 144.995
63.35000 143.570
63.52000 141.767
63.69000 149.916
63.86000 147.981
64.03000 150.899
64.20000 148.606
64.37000 158.736
64.54000 164.750
64.71000 167.615
64.88000 170.662
65.05000 196.872
65.22000 209.662
65.39000 262.876
65.56000 322.055
65.73000 475.965
65.90000 911.766
66.07000 369.916
66.24000 287.246
66.41000 379.624
66.58000 319.482
66.75000 301.126
66.92000 301.076
67.09000 335.859
67.26000 353.221
67.43000 378.367
67.60000 403.872
67.77000 440.938
67.94000 462.829
68.11000 518.427
68.28000 562.167
68.45000 649.564
68.62000 885.931
68.79000 1537.091
68.96000 6094.835
69.13000 47071.004
69.30000 31218.504
69.47000 9500.322
69.64000 1183.569
69.81000 791.228
69.98000 648.128
70.00000 651.491

File: BTO_Mapping_Theta2Theta_30-09-2025_001_30_-9-781_2-079.xy
20.00000 580.793
20.17000 570.810
20.34000 572.623
20.51000 547.529
20.68000 558.701
20.85000 545.630
21.02000 556.492
21.19000 550.162
21.36000 556.587
21.53000 540.597
21.70000 562.915
21.87000 613.960
22.04000 747.794
22.21000 675.606
22.38000 567.871
22.55000 543.771
22.72000 533.249
22.89000 522.136
23.06000 519.846
23.23000 515.201
23.40000 512.434
23.57000 497.758
23.74000 523.545
23.91000 504.637
24.08000 532.688
24.25000 535.159
24.42000 502.954
24.59000 502.033
24.76000 486.294
24.93000 476.355
25.10000 479.889
25.27000 467.926
25.44000 473.838
25.61000 459.785
25.78000 471.361
25.95000 473.741
26.12000 462.938
26.29000 457.262
26.46000 447.995
26.63000 446.327
26.80000 458.375
26.97000 443.649
27.14000 473.662
27.31000 458.285
27.48000 449.741
27.65000 450.266
27.82000 425.740
27.99000 433.371
28.16000 420.235
28.33000 439.583
28.50000 429.210
28.67000 428.451
28.84000 424.790
29.01000 440.011
29.18000 416.045
29.35000 422.948
29.52000 430.674
29.69000 405.926
29.86000 431.493
30.03000 457.619
30.20000 432.892
30.37000 433.981
30.54000 440.713
30.71000 459.878
30.88000 478.929
31.05000 651.002
31.22000 1799.304
31.39000 3573.707
31.56000 1712.145
31.73000 569.870
31.90000 461.380
32.07000 410.021
32.24000 418.961
32.41000 387.973
32.58000 371.327
32.75000 364.941
32.92000 405.789
33.09000 423.555
33.26000 358.418
33.43000 347.843
33.60000 341.695
33.77000 348.757
33.94000 351.681
34.11000 341.851
34.28000 351.617
34.45000 332.540
34.62000 340.707
34.79000 334.127
34.96000 328.978
35.13000 327.181
35.30000 318.451
35.47000 320.108
35.64000 344.943
35.81000 315.368
35.98000 306.776
36.15000 296.870
36.32000 313.134
36.49000 299.229
36.66000 312.010
36.83000 286.260
37.00000 313.159
37.17000 318.155
37.34000 297.476
37.51000 299.458
37.68000 284.312
37.85000 296.905
38.02000 299.755
38.19000 317.005
38.36000 329.235
38.53000 493.536
38.70000 853.179
38.87000 636.469
39.04000 342.961
39.21000 272.737
39.38000 261.142
39.55000 277.827
39.72000 263.948
39.89000 257.625
40.06000 260.938
40.23000 252.947
40.40000 262.273
40.57000 259.036
40.74000 253.217
40.91000 257.791
41.08000 251.646
41.25000 253.536
41.42000 238.167
41.59000 243.503
41.76000 240.668
41.93000 232.268
42.10000 235.091
42.27000 238.330
42.44000 244.877
42.61000 252.997
42.78000 236.674
42.95000 225.613
43.12000 231.752
43.29000 230.667
43.46000 222.369
43.63000 238.463
43.80000 208.386
43.97000 232.893
44.14000 215.384
44.31000 222.654
44.48000 226.117
44.65000 233.975
44.82000 274.697
44.99000 350.903
45.16000 397.700
45.33000 299.607
45.50000 243.962
45.67000 222.216
45.84000 208.132
46.01000 215.666
46.18000 200.729
46.35000 200.228
46.52000 199.404
46.69000 213.468
46.86000 197.024
47.03000 198.892
47.20000 193.315
47.37000 205.278
47.54000 183.748
47.71000 185.844
47.88000 199.002
48.05000 182.479
48.22000 178.496
48.39000 188.755
48.56000 184.066
48.73000 183.597
48.90000 187.981
49.07000 187.138
49.24000 188.457
49.41000 183.444
49.58000 172.355
49.75000 183.156
49.92000 190.659
50.09000 165.709
50.26000 183.042
50.43000 196.838
50.60000 259.575
50.77000 269.940
50.94000 210.653
51.11000 176.736
51.28000 173.101
51.45000 164.513
51.62000 170.791
51.79000 166.637
51.96000 163.612
52.13000 166.239
52.30000 158.113
52.47000 157.136
52.64000 154.881
52.81000 167.705
52.98000 164.045
53.15000 165.622
53.32000 169.451
53.49000 156.084
53.66000 154.824
53.83000 159.668
54.00000 162.727
54.17000 155.057
54.34000 162.003
54.51000 157.007
54.68000 151.053
54.85000 165.384
55.02000 161.052
55.19000 161.415
55.36000 170.066
55.53000 191.986
55.70000 309.559
55.87000 590.442
56.04000 598.409
56.21000 314.927
56.38000 192.653
56.55000 155.850
56.72000 160.175
56.89000 154.224
57.06000 149.125
57.23000 154.367
57.40000 140.006
57.57000 150.707
57.74000 138.579
57.91000 141.747
58.08000 152.580
58.25000 138.371
58.42000 144.587
58.59000 133.328
58.76000 144.015
58.93000 134.697
59.10000 137.369
59.27000 125.396
59.44000 133.569
59.61000 135.115
59.78000 126.294
59.95000 138.595
60.12000 139.296
60.29000 123.815
60.46000 143.418
60.63000 134.950
60.80000 140.407
60.97000 131.250
61.14000 137.629
61.31000 134.784
61.48000 142.846
61.65000 273.167
61.82000 211.303
61.99000 133.422
62.16000 142.114
62.33000 139.401
62.50000 151.981
62.67000 140.696
62.84000 129.396
63.01000 150.006
63.18000 143.982
63.35000 151.681
63.52000 153.253
63.69000 149.837
63.86000 153.464
64.03000 150.786
64.20000 163.260
64.37000 168.870
64.54000 172.038
64.71000 173.568
64.88000 193.713
65.05000 204.075
65.22000 240.013
65.39000 315.121
65.56000 428.145
65.73000 661.024
65.90000 1119.922
66.07000 369.660
66.24000 298.885
66.41000 451.070
66.58000 345.409
66.75000 318.699
66.92000 330.040
67.09000 357.372
67.26000 371.841
67.43000 423.723
67.60000 446.283
67.77000 458.539
67.94000 531.917
68.11000 561.061
68.28000 649.905
68.45000 752.968
68.62000 1003.516
68.79000 1939.337
68.96000 10466.805
69.13000 62554.250
69.30000 38749.973
69.47000 10085.106
69.64000 1309.056
69.81000 881.792
69.98000 722.837
70.00000 721.338