Folder: Master-Thesis/XRD/09-10-2025 Dep 8/XY Data (part 3)

File: BTO_Mapping_Theta2Theta_09-10-2025_001_23_-10-000_17-321.xy
20.00000 494.995
20.17000 463.070
20.34000 481.958
20.51000 488.538
20.68000 470.847
20.85000 466.570
21.02000 469.431
21.19000 479.123
21.36000 467.969
21.53000 494.122
21.70000 504.808
21.87000 544.549
22.04000 649.649
22.21000 619.485
22.38000 529.334
22.55000 483.032
22.72000 453.163
22.89000 456.340
23.06000 434.059
23.23000 446.190
23.40000 413.613
23.57000 426.375
23.74000 425.458
23.91000 430.979
24.08000 424.928
24.25000 426.062
24.42000 420.115
24.59000 434.109
24.76000 408.331
24.93000 410.085
25.10000 408.659
25.27000 419.680
25.44000 390.601
25.61000 399.271
25.78000 406.308
25.95000 405.500
26.12000 379.602
26.29000 399.371
26.46000 380.787
26.63000 391.340
26.80000 376.112
26.97000 363.489
27.14000 384.198
27.31000 382.742
27.48000 382.470
27.65000 371.441
27.82000 372.310
27.99000 371.385
28.16000 379.236
28.33000 373.720
28.50000 369.560
28.67000 362.284
28.84000 359.313
29.01000 368.041
29.18000 376.619
29.35000 352.549
29.52000 367.041
29.69000 372.158
29.86000 373.236
30.03000 435.698
30.20000 428.263
30.37000 395.863
30.54000 419.381
30.71000 409.783
30.88000 457.522
31.05000 588.535
31.22000 1439.753
31.39000 2959.306
31.56000 1940.457
31.73000 756.655
31.90000 463.084
32.07000 382.606
32.24000 351.200
32.41000 342.151
32.58000 355.506
32.75000 325.531
32.92000 320.746
33.09000 311.764
33.26000 311.074
33.43000 298.356
33.60000 305.310
33.77000 290.482
33.94000 284.939
34.11000 281.158
34.28000 285.817
34.45000 287.605
34.62000 287.501
34.79000 284.221
34.96000 296.125
35.13000 278.367
35.30000 264.552
35.47000 263.686
35.64000 275.893
35.81000 275.518
35.98000 253.857
36.15000 249.036
36.32000 275.018
36.49000 265.422
36.66000 258.560
36.83000 262.716
37.00000 282.180
37.17000 277.469
37.34000 259.217
37.51000 254.440
37.68000 282.483
37.85000 267.097
38.02000 255.695
38.19000 272.590
38.36000 319.446
38.53000 539.183
38.70000 1050.846
38.87000 758.080
39.04000 347.612
39.21000 289.095
39.38000 251.713
39.55000 249.404
39.72000 243.037
39.89000 227.560
40.06000 236.949
40.23000 227.678
40.40000 219.169
40.57000 218.875
40.74000 229.788
40.91000 216.189
41.08000 220.943
41.25000 217.010
41.42000 215.016
41.59000 207.121
41.76000 208.742
41.93000 214.724
42.10000 201.706
42.27000 193.816
42.44000 201.816
42.61000 210.614
42.78000 206.026
42.95000 208.101
43.12000 197.221
43.29000 213.081
43.46000 202.203
43.63000 181.260
43.80000 200.063
43.97000 193.053
44.14000 202.496
44.31000 189.453
44.48000 214.873
44.65000 212.395
44.82000 239.739
44.99000 314.715
45.16000 353.449
45.33000 293.460
45.50000 249.125
45.67000 233.344
45.84000 198.340
46.01000 191.631
46.18000 178.296
46.35000 167.414
46.52000 184.160
46.69000 166.151
46.86000 165.254
47.03000 174.630
47.20000 167.297
47.37000 181.252
47.54000 163.369
47.71000 160.916
47.88000 162.513
48.05000 155.944
48.22000 167.373
48.39000 166.683
48.56000 158.500
48.73000 153.934
48.90000 157.670
49.07000 155.173
49.24000 167.973
49.41000 153.590
49.58000 149.166
49.75000 151.764
49.92000 152.324
50.09000 161.632
50.26000 160.943
50.43000 165.025
50.60000 207.009
50.77000 234.023
50.94000 212.912
51.11000 168.572
51.28000 174.322
51.45000 159.483
51.62000 147.633
51.79000 148.348
51.96000 144.214
52.13000 143.582
52.30000 147.593
52.47000 149.486
52.64000 139.934
52.81000 145.467
52.98000 135.548
53.15000 147.869
53.32000 150.844
53.49000 149.434
53.66000 138.944
53.83000 136.055
54.00000 141.266
54.17000 140.226
54.34000 133.757
54.51000 141.089
54.68000 130.718
54.85000 143.774
55.02000 142.763
55.19000 149.092
55.36000 157.519
55.53000 189.789
55.70000 263.574
55.87000 465.555
56.04000 568.228
56.21000 366.488
56.38000 219.874
56.55000 172.733
56.72000 143.423
56.89000 140.731
57.06000 143.467
57.23000 135.192
57.40000 126.072
57.57000 125.404
57.74000 131.386
57.91000 122.526
58.08000 126.001
58.25000 129.116
58.42000 117.155
58.59000 125.717
58.76000 118.519
58.93000 122.620
59.10000 124.025
59.27000 129.200
59.44000 119.102
59.61000 117.688
59.78000 125.466
59.95000 125.657
60.12000 113.961
60.29000 131.800
60.46000 111.091
60.63000 120.708
60.80000 115.928
60.97000 122.500
61.14000 123.618
61.31000 127.801
61.48000 151.484
61.65000 363.695
61.82000 219.179
61.99000 132.264
62.16000 130.912
62.33000 132.157
62.50000 134.231
62.67000 131.123
62.84000 147.044
63.01000 142.114
63.18000 142.795
63.35000 138.521
63.52000 126.983
63.69000 154.043
63.86000 148.570
64.03000 147.016
64.20000 159.225
64.37000 174.202
64.54000 178.250
64.71000 177.833
64.88000 194.752
65.05000 219.327
65.22000 261.748
65.39000 331.155
65.56000 493.949
65.73000 1519.631
65.90000 2768.029
66.07000 662.161
66.24000 491.206
66.41000 816.794
66.58000 522.438
66.75000 426.594
66.92000 414.939
67.09000 446.428
67.26000 463.794
67.43000 488.513
67.60000 532.867
67.77000 556.076
67.94000 583.788
68.11000 619.953
68.28000 683.513
68.45000 764.510
68.62000 1145.455
68.79000 2257.085
68.96000 15009.423
69.13000 67337.258
69.30000 36680.988
69.47000 8700.150
69.64000 1172.106
69.81000 738.979
69.98000 595.702
70.00000 563.545

File: BTO_Mapping_Theta2Theta_09-10-2025_001_24_-15-000_25-981.xy
20.00000 477.174
20.17000 484.735
20.34000 462.569
20.51000 485.742
20.68000 487.631
20.85000 470.653
21.02000 466.452
21.19000 488.864
21.36000 483.322
21.53000 477.996
21.70000 497.079
21.87000 539.096
22.04000 632.216
22.21000 611.186
22.38000 547.329
22.55000 469.155
22.72000 450.779
22.89000 446.398
23.06000 426.694
23.23000 435.429
23.40000 442.396
23.57000 436.976
23.74000 426.195
23.91000 432.695
24.08000 423.241
24.25000 405.594
24.42000 400.060
24.59000 428.482
24.76000 406.239
24.93000 418.153
25.10000 408.583
25.27000 412.190
25.44000 413.800
25.61000 399.651
25.78000 398.401
25.95000 388.328
26.12000 403.689
26.29000 414.741
26.46000 400.339
26.63000 401.596
26.80000 389.458
26.97000 371.164
27.14000 375.169
27.31000 384.507
27.48000 373.822
27.65000 382.087
27.82000 380.539
27.99000 369.906
28.16000 383.156
28.33000 377.450
28.50000 375.804
28.67000 363.858
28.84000 381.028
29.01000 371.778
29.18000 364.785
29.35000 365.509
29.52000 369.418
29.69000 378.051
29.86000 401.413
30.03000 455.741
30.20000 460.497
30.37000 403.682
30.54000 413.417
30.71000 403.492
30.88000 442.456
31.05000 570.525
31.22000 1345.744
31.39000 2885.656
31.56000 1995.074
31.73000 810.753
31.90000 475.483
32.07000 379.376
32.24000 354.189
32.41000 349.747
32.58000 346.473
32.75000 328.220
32.92000 326.136
33.09000 305.387
33.26000 310.046
33.43000 306.554
33.60000 295.957
33.77000 296.134
33.94000 293.656
34.11000 313.145
34.28000 279.173
34.45000 287.088
34.62000 289.671
34.79000 291.019
34.96000 260.543
35.13000 273.118
35.30000 271.356
35.47000 263.106
35.64000 270.792
35.81000 266.913
35.98000 277.706
36.15000 268.666
36.32000 281.689
36.49000 264.160
36.66000 254.917
36.83000 273.046
37.00000 270.248
37.17000 278.486
37.34000 276.807
37.51000 260.529
37.68000 244.171
37.85000 266.843
38.02000 253.495
38.19000 290.643
38.36000 320.975
38.53000 512.920
38.70000 1039.916
38.87000 776.249
39.04000 372.252
39.21000 279.263
39.38000 246.592
39.55000 231.815
39.72000 243.277
39.89000 231.776
40.06000 221.972
40.23000 226.341
40.40000 217.509
40.57000 205.380
40.74000 217.489
40.91000 211.495
41.08000 216.257
41.25000 215.451
41.42000 200.443
41.59000 215.514
41.76000 217.491
41.93000 213.114
42.10000 207.200
42.27000 213.229
42.44000 201.351
42.61000 214.394
42.78000 207.214
42.95000 206.181
43.12000 200.883
43.29000 194.942
43.46000 207.556
43.63000 200.421
43.80000 195.766
43.97000 190.643
44.14000 189.344
44.31000 196.338
44.48000 194.997
44.65000 210.743
44.82000 243.140
44.99000 287.773
45.16000 339.725
45.33000 299.487
45.50000 248.703
45.67000 223.656
45.84000 206.778
46.01000 198.833
46.18000 181.623
46.35000 183.252
46.52000 166.709
46.69000 174.909
46.86000 157.501
47.03000 178.761
47.20000 177.288
47.37000 165.870
47.54000 177.871
47.71000 162.854
47.88000 172.728
48.05000 171.873
48.22000 153.416
48.39000 158.865
48.56000 158.949
48.73000 162.142
48.90000 167.456
49.07000 161.103
49.24000 157.861
49.41000 147.778
49.58000 149.361
49.75000 144.506
49.92000 155.844
50.09000 153.195
50.26000 160.487
50.43000 166.483
50.60000 216.191
50.77000 239.696
50.94000 203.257
51.11000 171.321
51.28000 163.807
51.45000 143.114
51.62000 150.898
51.79000 151.965
51.96000 151.721
52.13000 130.827
52.30000 143.299
52.47000 139.481
52.64000 146.129
52.81000 144.100
52.98000 147.917
53.15000 144.063
53.32000 151.443
53.49000 153.333
53.66000 153.858
53.83000 148.155
54.00000 140.366
54.17000 147.352
54.34000 140.695
54.51000 134.508
54.68000 140.973
54.85000 134.074
55.02000 136.560
55.19000 142.735
55.36000 162.426
55.53000 174.866
55.70000 250.715
55.87000 465.745
56.04000 566.456
56.21000 383.560
56.38000 229.918
56.55000 173.757
56.72000 155.174
56.89000 140.395
57.06000 129.962
57.23000 132.533
57.40000 128.796
57.57000 136.259
57.74000 133.031
57.91000 128.337
58.08000 134.256
58.25000 130.348
58.42000 121.140
58.59000 129.477
58.76000 125.697
58.93000 125.127
59.10000 124.674
59.27000 113.983
59.44000 121.967
59.61000 120.496
59.78000 112.986
59.95000 127.246
60.12000 104.290
60.29000 116.342
60.46000 124.130
60.63000 131.930
60.80000 114.190
60.97000 122.422
61.14000 115.078
61.31000 117.407
61.48000 135.480
61.65000 357.928
61.82000 240.316
61.99000 139.042
62.16000 129.473
62.33000 122.791
62.50000 128.930
62.67000 140.881
62.84000 137.966
63.01000 135.274
63.18000 151.061
63.35000 126.343
63.52000 144.099
63.69000 144.496
63.86000 153.388
64.03000 146.552
64.20000 152.732
64.37000 162.587
64.54000 165.548
64.71000 173.932
64.88000 190.347
65.05000 207.543
65.22000 251.062
65.39000 318.586
65.56000 500.472
65.73000 1556.507
65.90000 2758.250
66.07000 674.858
66.24000 498.376
66.41000 835.501
66.58000 529.165
66.75000 427.989
66.92000 434.622
67.09000 445.646
67.26000 474.611
67.43000 493.064
67.60000 519.054
67.77000 536.038
67.94000 583.556
68.11000 626.826
68.28000 703.285
68.45000 799.388
68.62000 1176.904
68.79000 2275.248
68.96000 15192.036
69.13000 68436.547
69.30000 37069.848
69.47000 8914.574
69.64000 1178.304
69.81000 755.105
69.98000 588.546
70.00000 597.663

File: BTO_Mapping_Theta2Theta_09-10-2025_001_25_-20-000_34-641.xy
20.00000 495.139
20.17000 482.105
20.34000 469.383
20.51000 472.806
20.68000 465.165
20.85000 489.784
21.02000 471.325
21.19000 487.551
21.36000 467.523
21.53000 468.521
21.70000 474.224
21.87000 529.129
22.04000 627.327
22.21000 600.264
22.38000 517.678
22.55000 480.668
22.72000 423.813
22.89000 446.008
23.06000 461.471
23.23000 426.946
23.40000 438.803
23.57000 428.760
23.74000 445.585
23.91000 439.713
24.08000 436.780
24.25000 446.266
24.42000 413.818
24.59000 414.543
24.76000 424.351
24.93000 411.596
25.10000 425.653
25.27000 409.453
25.44000 405.834
25.61000 395.886
25.78000 400.449
25.95000 409.379
26.12000 404.859
26.29000 396.719
26.46000 394.462
26.63000 391.439
26.80000 399.378
26.97000 391.166
27.14000 378.788
27.31000 374.999
27.48000 390.694
27.65000 367.183
27.82000 362.038
27.99000 370.067
28.16000 384.768
28.33000 385.524
28.50000 377.313
28.67000 373.180
28.84000 377.333
29.01000 361.416
29.18000 371.316
29.35000 353.752
29.52000 369.565
29.69000 370.954
29.86000 401.391
30.03000 454.438
30.20000 415.138
30.37000 397.317
30.54000 374.101
30.71000 401.964
30.88000 433.381
31.05000 526.521
31.22000 1092.394
31.39000 2680.719
31.56000 2261.516
31.73000 871.162
31.90000 491.680
32.07000 386.400
32.24000 350.366
32.41000 344.216
32.58000 331.427
32.75000 327.757
32.92000 324.737
33.09000 314.626
33.26000 302.595
33.43000 314.032
33.60000 298.520
33.77000 293.808
33.94000 292.176
34.11000 293.656
34.28000 292.889
34.45000 284.267
34.62000 272.489
34.79000 278.816
34.96000 280.937
35.13000 283.312
35.30000 266.218
35.47000 276.371
35.64000 271.195
35.81000 267.097
35.98000 264.311
36.15000 262.301
36.32000 262.106
36.49000 255.330
36.66000 258.290
36.83000 262.485
37.00000 283.576
37.17000 285.678
37.34000 261.869
37.51000 281.589
37.68000 266.348
37.85000 266.037
38.02000 252.345
38.19000 280.414
38.36000 313.732
38.53000 455.198
38.70000 970.047
38.87000 846.698
39.04000 380.540
39.21000 289.098
39.38000 254.242
39.55000 249.765
39.72000 244.606
39.89000 222.499
40.06000 232.015
40.23000 240.114
40.40000 224.445
40.57000 215.472
40.74000 222.436
40.91000 215.408
41.08000 208.761
41.25000 199.248
41.42000 212.385
41.59000 209.191
41.76000 209.025
41.93000 202.865
42.10000 194.851
42.27000 204.391
42.44000 201.432
42.61000 201.322
42.78000 213.997
42.95000 204.910
43.12000 201.931
43.29000 209.212
43.46000 191.821
43.63000 202.679
43.80000 197.940
43.97000 188.536
44.14000 185.588
44.31000 203.148
44.48000 207.409
44.65000 202.165
44.82000 217.792
44.99000 281.816
45.16000 324.138
45.33000 300.872
45.50000 239.577
45.67000 237.856
45.84000 198.487
46.01000 190.717
46.18000 188.749
46.35000 170.097
46.52000 178.562
46.69000 165.087
46.86000 165.454
47.03000 176.807
47.20000 170.714
47.37000 167.051
47.54000 163.226
47.71000 169.911
47.88000 165.906
48.05000 170.495
48.22000 154.573
48.39000 153.551
48.56000 163.472
48.73000 163.072
48.90000 156.394
49.07000 165.287
49.24000 153.080
49.41000 153.433
49.58000 148.299
49.75000 156.511
49.92000 155.187
50.09000 166.436
50.26000 164.118
50.43000 167.528
50.60000 204.640
50.77000 236.938
50.94000 230.667
51.11000 184.577
51.28000 171.281
51.45000 163.954
51.62000 148.623
51.79000 143.809
51.96000 138.762
52.13000 142.215
52.30000 144.404
52.47000 150.241
52.64000 138.562
52.81000 136.490
52.98000 144.668
53.15000 142.601
53.32000 150.231
53.49000 157.223
53.66000 148.084
53.83000 142.483
54.00000 143.238
54.17000 141.407
54.34000 132.384
54.51000 134.538
54.68000 149.129
54.85000 133.702
55.02000 141.121
55.19000 151.362
55.36000 139.971
55.53000 163.356
55.70000 234.788
55.87000 455.757
56.04000 618.891
56.21000 429.871
56.38000 250.620
56.55000 179.654
56.72000 155.960
56.89000 146.091
57.06000 141.917
57.23000 118.806
57.40000 132.815
57.57000 125.821
57.74000 134.001
57.91000 128.552
58.08000 128.628
58.25000 126.972
58.42000 128.781
58.59000 121.225
58.76000 133.517
58.93000 120.098
59.10000 121.501
59.27000 119.767
59.44000 119.802
59.61000 116.153
59.78000 116.255
59.95000 107.938
60.12000 117.987
60.29000 122.130
60.46000 117.572
60.63000 113.848
60.80000 115.796
60.97000 125.063
61.14000 124.492
61.31000 135.585
61.48000 131.978
61.65000 352.370
61.82000 248.127
61.99000 129.830
62.16000 138.851
62.33000 131.068
62.50000 140.849
62.67000 132.962
62.84000 130.780
63.01000 131.235
63.18000 138.807
63.35000 140.235
63.52000 141.483
63.69000 147.391
63.86000 140.957
64.03000 145.193
64.20000 157.305
64.37000 160.269
64.54000 170.431
64.71000 180.111
64.88000 193.881
65.05000 207.721
65.22000 236.561
65.39000 303.357
65.56000 445.620
65.73000 1408.245
65.90000 2897.277
66.07000 724.802
66.24000 503.579
66.41000 838.921
66.58000 529.119
66.75000 433.242
66.92000 432.079
67.09000 473.394
67.26000 484.643
67.43000 495.704
67.60000 496.977
67.77000 581.261
67.94000 581.065
68.11000 631.323
68.28000 692.460
68.45000 782.182
68.62000 1121.797
68.79000 2221.751
68.96000 12369.686
69.13000 67307.867
69.30000 39345.445
69.47000 10775.807
69.64000 1205.134
69.81000 749.765
69.98000 601.150
70.00000 587.655

File: BTO_Mapping_Theta2Theta_09-10-2025_001_27_-16-180_11-756.xy
20.00000 486.066
20.17000 465.747
20.34000 472.028
20.51000 479.189
20.68000 475.450
20.85000 481.476
21.02000 502.940
21.19000 492.734
21.36000 499.547
21.53000 483.493
21.70000 486.537
21.87000 577.136
22.04000 678.365
22.21000 598.245
22.38000 507.768
22.55000 468.951
22.72000 443.147
22.89000 442.503
23.06000 451.260
23.23000 435.348
23.40000 438.485
23.57000 439.908
23.74000 417.709
23.91000 425.201
24.08000 419.967
24.25000 429.786
24.42000 435.399
24.59000 434.364
24.76000 426.438
24.93000 421.915
25.10000 416.463
25.27000 403.607
25.44000 397.260
25.61000 404.755
25.78000 392.868
25.95000 408.197
26.12000 403.310
26.29000 394.910
26.46000 396.393
26.63000 386.939
26.80000 378.882
26.97000 400.632
27.14000 386.149
27.31000 387.619
27.48000 380.077
27.65000 373.587
27.82000 366.103
27.99000 362.264
28.16000 378.228
28.33000 382.216
28.50000 381.201
28.67000 365.156
28.84000 366.051
29.01000 360.232
29.18000 370.019
29.35000 363.291
29.52000 368.282
29.69000 361.464
29.86000 410.601
30.03000 462.161
30.20000 436.020
30.37000 412.308
30.54000 400.707
30.71000 401.580
30.88000 450.826
31.05000 619.355
31.22000 1519.967
31.39000 2935.824
31.56000 1789.173
31.73000 721.023
31.90000 450.257
32.07000 383.755
32.24000 348.030
32.41000 348.507
32.58000 339.850
32.75000 319.326
32.92000 316.694
33.09000 325.108
33.26000 304.567
33.43000 299.009
33.60000 297.176
33.77000 303.462
33.94000 304.727
34.11000 292.695
34.28000 290.863
34.45000 285.060
34.62000 283.159
34.79000 285.409
34.96000 263.986
35.13000 285.033
35.30000 272.811
35.47000 283.769
35.64000 262.404
35.81000 269.277
35.98000 257.790
36.15000 273.785
36.32000 254.273
36.49000 256.908
36.66000 264.250
36.83000 263.919
37.00000 287.137
37.17000 277.180
37.34000 274.709
37.51000 264.782
37.68000 270.996
37.85000 263.959
38.02000 255.111
38.19000 291.104
38.36000 328.960
38.53000 571.034
38.70000 967.354
38.87000 639.311
39.04000 320.492
39.21000 274.833
39.38000 263.962
39.55000 243.640
39.72000 244.200
39.89000 232.904
40.06000 239.143
40.23000 230.338
40.40000 234.998
40.57000 217.172
40.74000 225.685
40.91000 227.670
41.08000 219.851
41.25000 217.648
41.42000 215.908
41.59000 206.062
41.76000 227.055
41.93000 204.160
42.10000 213.476
42.27000 195.963
42.44000 192.040
42.61000 207.270
42.78000 218.293
42.95000 203.350
43.12000 203.916
43.29000 221.280
43.46000 196.721
43.63000 190.262
43.80000 191.129
43.97000 189.954
44.14000 208.416
44.31000 207.030
44.48000 209.616
44.65000 235.009
44.82000 269.438
44.99000 360.075
45.16000 392.830
45.33000 294.160
45.50000 246.449
45.67000 220.586
45.84000 212.858
46.01000 188.367
46.18000 179.617
46.35000 178.170
46.52000 180.326
46.69000 177.624
46.86000 167.323
47.03000 161.930
47.20000 163.634
47.37000 165.367
47.54000 176.747
47.71000 170.706
47.88000 175.748
48.05000 157.011
48.22000 165.656
48.39000 165.553
48.56000 158.232
48.73000 164.079
48.90000 161.441
49.07000 164.907
49.24000 153.728
49.41000 165.353
49.58000 158.673
49.75000 164.279
49.92000 144.027
50.09000 171.942
50.26000 155.881
50.43000 170.844
50.60000 222.327
50.77000 240.597
50.94000 202.172
51.11000 175.034
51.28000 153.401
51.45000 145.496
51.62000 148.737
51.79000 149.523
51.96000 136.929
52.13000 141.253
52.30000 147.949
52.47000 140.075
52.64000 126.523
52.81000 141.094
52.98000 140.722
53.15000 148.956
53.32000 150.976
53.49000 147.753
53.66000 150.082
53.83000 158.324
54.00000 151.177
54.17000 145.320
54.34000 133.079
54.51000 139.459
54.68000 145.827
54.85000 141.094
55.02000 144.586
55.19000 134.474
55.36000 162.835
55.53000 196.897
55.70000 305.205
55.87000 533.146
56.04000 562.960
56.21000 358.115
56.38000 211.369
56.55000 173.196
56.72000 148.267
56.89000 135.885
57.06000 145.081
57.23000 138.218
57.40000 136.896
57.57000 120.084
57.74000 117.959
57.91000 127.994
58.08000 117.503
58.25000 117.169
58.42000 125.021
58.59000 121.103
58.76000 119.163
58.93000 128.101
59.10000 121.402
59.27000 122.486
59.44000 117.405
59.61000 118.620
59.78000 123.649
59.95000 123.488
60.12000 132.011
60.29000 120.208
60.46000 112.349
60.63000 116.458
60.80000 116.718
60.97000 117.599
61.14000 119.793
61.31000 142.312
61.48000 153.448
61.65000 411.563
61.82000 243.221
61.99000 138.602
62.16000 127.259
62.33000 129.761
62.50000 134.417
62.67000 132.843
62.84000 136.674
63.01000 131.843
63.18000 137.669
63.35000 137.482
63.52000 153.480
63.69000 147.857
63.86000 145.827
64.03000 159.773
64.20000 159.021
64.37000 175.182
64.54000 171.509
64.71000 178.506
64.88000 192.602
65.05000 227.351
65.22000 263.066
65.39000 355.680
65.56000 521.165
65.73000 1765.794
65.90000 3152.035
66.07000 733.128
66.24000 531.318
66.41000 892.146
66.58000 558.978
66.75000 459.188
66.92000 449.687
67.09000 477.454
67.26000 489.385
67.43000 510.891
67.60000 525.853
67.77000 594.228
67.94000 622.043
68.11000 667.513
68.28000 720.403
68.45000 848.509
68.62000 1301.023
68.79000 2516.420
68.96000 18489.604
69.13000 78069.055
69.30000 42015.613
69.47000 9730.793
69.64000 1266.769
69.81000 782.087
69.98000 610.616
70.00000 611.899

File: BTO_Mapping_Theta2Theta_09-10-2025_001_28_-24-271_17-634.xy
20.00000 486.465
20.17000 505.790
20.34000 495.878
20.51000 484.947
20.68000 472.628
20.85000 475.354
21.02000 500.916
21.19000 489.924
21.36000 464.569
21.53000 477.866
21.70000 514.507
21.87000 565.957
22.04000 693.028
22.21000 607.855
22.38000 512.167
22.55000 462.953
22.72000 470.835
22.89000 468.370
23.06000 460.394
23.23000 441.055
23.40000 449.758
23.57000 410.451
23.74000 413.723
23.91000 412.473
24.08000 435.753
24.25000 432.001
24.42000 417.854
24.59000 422.135
24.76000 414.575
24.93000 404.617
25.10000 402.484
25.27000 408.691
25.44000 406.943
25.61000 402.499
25.78000 410.729
25.95000 406.835
26.12000 399.658
26.29000 398.339
26.46000 376.541
26.63000 405.196
26.80000 396.369
26.97000 391.049
27.14000 386.325
27.31000 386.344
27.48000 378.173
27.65000 396.605
27.82000 383.667
27.99000 393.438
28.16000 363.191
28.33000 388.510
28.50000 368.729
28.67000 377.003
28.84000 357.652
29.01000 339.292
29.18000 368.179
29.35000 357.901
29.52000 375.941
29.69000 369.770
29.86000 402.028
30.03000 456.455
30.20000 419.842
30.37000 378.023
30.54000 392.012
30.71000 402.229
30.88000 428.903
31.05000 595.997
31.22000 1471.482
31.39000 2971.146
31.56000 1926.755
31.73000 709.033
31.90000 432.933
32.07000 379.018
32.24000 363.132
32.41000 348.043
32.58000 336.119
32.75000 340.463
32.92000 323.492
33.09000 331.934
33.26000 313.959
33.43000 298.405
33.60000 284.967
33.77000 288.448
33.94000 308.869
34.11000 300.236
34.28000 285.275
34.45000 270.413
34.62000 293.578
34.79000 290.761
34.96000 281.958
35.13000 271.044
35.30000 268.420
35.47000 277.795
35.64000 272.096
35.81000 262.952
35.98000 260.282
36.15000 268.156
36.32000 265.489
36.49000 280.748
36.66000 255.073
36.83000 271.353
37.00000 287.419
37.17000 262.395
37.34000 255.965
37.51000 268.349
37.68000 266.240
37.85000 278.256
38.02000 278.658
38.19000 283.619
38.36000 322.739
38.53000 557.304
38.70000 902.999
38.87000 644.767
39.04000 339.323
39.21000 270.529
39.38000 244.431
39.55000 254.531
39.72000 243.840
39.89000 225.875
40.06000 227.198
40.23000 233.609
40.40000 229.001
40.57000 214.029
40.74000 226.174
40.91000 221.692
41.08000 234.783
41.25000 212.191
41.42000 210.614
41.59000 203.835
41.76000 213.232
41.93000 195.151
42.10000 218.598
42.27000 216.584
42.44000 203.993
42.61000 208.310
42.78000 197.036
42.95000 206.420
43.12000 209.811
43.29000 201.238
43.46000 206.466
43.63000 202.700
43.80000 183.453
43.97000 199.307
44.14000 198.186
44.31000 210.525
44.48000 216.121
44.65000 233.167
44.82000 265.701
44.99000 378.155
45.16000 396.252
45.33000 319.048
45.50000 248.302
45.67000 222.058
45.84000 198.383
46.01000 191.873
46.18000 186.007
46.35000 169.178
46.52000 164.440
46.69000 184.187
46.86000 172.387
47.03000 159.427
47.20000 176.304
47.37000 171.376
47.54000 169.691
47.71000 157.428
47.88000 155.959
48.05000 164.976
48.22000 161.547
48.39000 171.650
48.56000 169.775
48.73000 169.501
48.90000 159.155
49.07000 159.659
49.24000 162.047
49.41000 163.661
49.58000 145.472
49.75000 159.832
49.92000 159.758
50.09000 152.891
50.26000 163.923
50.43000 179.394
50.60000 219.575
50.77000 250.936
50.94000 212.863
51.11000 164.145
51.28000 164.736
51.45000 172.194
51.62000 146.099
51.79000 148.850
51.96000 153.728
52.13000 134.186
52.30000 157.812
52.47000 151.974
52.64000 136.787
52.81000 148.107
52.98000 140.295
53.15000 152.348
53.32000 158.659
53.49000 153.938
53.66000 146.345
53.83000 141.805
54.00000 139.579
54.17000 141.503
54.34000 137.891
54.51000 144.313
54.68000 143.811
54.85000 148.344
55.02000 154.525
55.19000 147.962
55.36000 163.759
55.53000 200.288
55.70000 308.573
55.87000 559.731
56.04000 567.088
56.21000 376.425
56.38000 224.114
56.55000 177.826
56.72000 144.871
56.89000 136.509
57.06000 126.070
57.23000 135.997
57.40000 132.963
57.57000 124.914
57.74000 121.716
57.91000 133.659
58.08000 123.757
58.25000 125.549
58.42000 121.805
58.59000 124.394
58.76000 122.717
58.93000 123.650
59.10000 124.058
59.27000 122.394
59.44000 121.444
59.61000 109.967
59.78000 119.744
59.95000 116.490
60.12000 115.672
60.29000 124.280
60.46000 120.552
60.63000 113.944
60.80000 120.057
60.97000 124.943
61.14000 124.169
61.31000 121.282
61.48000 172.178
61.65000 404.779
61.82000 272.154
61.99000 144.831
62.16000 139.358
62.33000 143.280
62.50000 140.888
62.67000 142.727
62.84000 137.934
63.01000 134.943
63.18000 144.386
63.35000 139.656
63.52000 144.064
63.69000 148.936
63.86000 148.693
64.03000 156.007
64.20000 169.328
64.37000 180.056
64.54000 171.371
64.71000 191.250
64.88000 187.040
65.05000 223.229
65.22000 274.452
65.39000 360.246
65.56000 512.271
65.73000 1721.134
65.90000 3421.107
66.07000 782.641
66.24000 585.056
66.41000 963.952
66.58000 599.824
66.75000 444.925
66.92000 474.914
67.09000 496.509
67.26000 516.382
67.43000 555.313
67.60000 576.368
67.77000 591.580
67.94000 621.427
68.11000 698.033
68.28000 766.853
68.45000 886.077
68.62000 1302.729
68.79000 2681.978
68.96000 17384.529
69.13000 82445.242
69.30000 46302.996
69.47000 11886.584
69.64000 1359.627
69.81000 803.401
69.98000 630.697
70.00000 626.562