Folder: Master-Thesis/XRD/09-10-2025 Dep 8/XY Data (part 5)

File: BTO_Mapping_Theta2Theta_09-10-2025_001_38_-8-090_-5-878.xy
20.00000 495.851
20.17000 493.233
20.34000 490.109
20.51000 486.116
20.68000 484.826
20.85000 479.114
21.02000 493.178
21.19000 486.295
21.36000 468.232
21.53000 487.290
21.70000 507.807
21.87000 593.294
22.04000 682.684
22.21000 619.707
22.38000 513.231
22.55000 483.360
22.72000 461.072
22.89000 450.547
23.06000 456.446
23.23000 451.568
23.40000 433.910
23.57000 440.208
23.74000 434.425
23.91000 418.050
24.08000 421.829
24.25000 427.035
24.42000 407.853
24.59000 420.001
24.76000 421.294
24.93000 410.714
25.10000 415.942
25.27000 405.281
25.44000 406.229
25.61000 431.569
25.78000 399.405
25.95000 400.167
26.12000 402.085
26.29000 394.203
26.46000 397.963
26.63000 386.838
26.80000 385.167
26.97000 389.146
27.14000 390.906
27.31000 383.165
27.48000 391.397
27.65000 380.738
27.82000 372.211
27.99000 373.349
28.16000 367.860
28.33000 381.875
28.50000 377.938
28.67000 376.341
28.84000 362.363
29.01000 351.587
29.18000 359.307
29.35000 368.652
29.52000 359.489
29.69000 369.987
29.86000 396.215
30.03000 464.736
30.20000 441.704
30.37000 400.575
30.54000 384.566
30.71000 416.878
30.88000 459.711
31.05000 651.389
31.22000 1635.337
31.39000 2982.049
31.56000 1728.157
31.73000 656.620
31.90000 413.053
32.07000 369.811
32.24000 350.189
32.41000 343.204
32.58000 340.895
32.75000 337.454
32.92000 331.656
33.09000 318.312
33.26000 308.029
33.43000 302.836
33.60000 285.098
33.77000 295.638
33.94000 310.850
34.11000 295.769
34.28000 308.883
34.45000 286.640
34.62000 293.062
34.79000 291.546
34.96000 268.836
35.13000 279.292
35.30000 269.926
35.47000 262.934
35.64000 267.214
35.81000 259.842
35.98000 272.712
36.15000 259.437
36.32000 250.483
36.49000 269.439
36.66000 261.232
36.83000 275.668
37.00000 278.018
37.17000 272.594
37.34000 264.359
37.51000 256.495
37.68000 257.415
37.85000 254.000
38.02000 280.781
38.19000 288.749
38.36000 336.831
38.53000 594.443
38.70000 998.971
38.87000 665.214
39.04000 323.551
39.21000 273.753
39.38000 279.694
39.55000 251.125
39.72000 228.807
39.89000 240.813
40.06000 235.388
40.23000 238.007
40.40000 223.878
40.57000 232.602
40.74000 225.421
40.91000 220.620
41.08000 209.247
41.25000 215.051
41.42000 222.183
41.59000 231.429
41.76000 217.187
41.93000 201.898
42.10000 196.642
42.27000 214.399
42.44000 206.811
42.61000 204.344
42.78000 208.172
42.95000 192.989
43.12000 217.739
43.29000 203.079
43.46000 203.615
43.63000 198.385
43.80000 193.045
43.97000 202.340
44.14000 205.861
44.31000 199.763
44.48000 214.262
44.65000 218.414
44.82000 285.831
44.99000 370.660
45.16000 360.593
45.33000 312.634
45.50000 265.408
45.67000 206.680
45.84000 193.995
46.01000 196.834
46.18000 182.926
46.35000 173.060
46.52000 170.250
46.69000 171.437
46.86000 166.464
47.03000 180.671
47.20000 159.607
47.37000 169.529
47.54000 175.698
47.71000 169.723
47.88000 170.996
48.05000 167.894
48.22000 155.975
48.39000 159.858
48.56000 171.664
48.73000 171.722
48.90000 153.875
49.07000 161.913
49.24000 160.666
49.41000 148.134
49.58000 165.347
49.75000 171.192
49.92000 157.721
50.09000 149.977
50.26000 167.408
50.43000 177.590
50.60000 213.545
50.77000 244.979
50.94000 206.672
51.11000 169.106
51.28000 167.353
51.45000 147.264
51.62000 151.792
51.79000 145.335
51.96000 138.292
52.13000 141.674
52.30000 144.921
52.47000 141.483
52.64000 134.956
52.81000 150.302
52.98000 144.971
53.15000 147.888
53.32000 148.720
53.49000 156.940
53.66000 152.150
53.83000 137.517
54.00000 141.494
54.17000 133.426
54.34000 145.907
54.51000 149.959
54.68000 145.674
54.85000 138.407
55.02000 145.055
55.19000 153.715
55.36000 160.384
55.53000 196.761
55.70000 317.459
55.87000 516.619
56.04000 538.483
56.21000 335.775
56.38000 212.470
56.55000 167.448
56.72000 152.526
56.89000 138.753
57.06000 135.655
57.23000 130.304
57.40000 129.279
57.57000 133.477
57.74000 129.895
57.91000 129.837
58.08000 123.755
58.25000 123.893
58.42000 128.663
58.59000 129.931
58.76000 124.152
58.93000 124.561
59.10000 120.254
59.27000 125.180
59.44000 112.580
59.61000 122.778
59.78000 127.616
59.95000 113.335
60.12000 111.849
60.29000 107.581
60.46000 116.757
60.63000 105.889
60.80000 110.558
60.97000 125.221
61.14000 128.981
61.31000 124.502
61.48000 144.175
61.65000 430.036
61.82000 237.573
61.99000 138.516
62.16000 128.654
62.33000 141.862
62.50000 128.015
62.67000 136.515
62.84000 139.409
63.01000 145.570
63.18000 163.899
63.35000 149.603
63.52000 127.173
63.69000 145.580
63.86000 145.477
64.03000 150.050
64.20000 162.521
64.37000 160.739
64.54000 162.250
64.71000 167.623
64.88000 201.251
65.05000 223.091
65.22000 271.556
65.39000 370.345
65.56000 525.564
65.73000 1782.305
65.90000 3155.383
66.07000 721.507
66.24000 558.511
66.41000 923.740
66.58000 544.832
66.75000 439.850
66.92000 461.287
67.09000 488.372
67.26000 516.428
67.43000 538.013
67.60000 553.552
67.77000 572.824
67.94000 627.344
68.11000 656.066
68.28000 750.828
68.45000 841.330
68.62000 1296.296
68.79000 2504.128
68.96000 18920.779
69.13000 77550.453
69.30000 41372.871
69.47000 9164.084
69.64000 1243.431
69.81000 771.631
69.98000 620.941
70.00000 600.132

File: BTO_Mapping_Theta2Theta_09-10-2025_001_39_-16-180_-11-756.xy
20.00000 489.343
20.17000 476.216
20.34000 498.902
20.51000 489.136
20.68000 476.148
20.85000 484.870
21.02000 483.715
21.19000 493.530
21.36000 463.278
21.53000 490.134
21.70000 518.489
21.87000 643.663
22.04000 731.261
22.21000 625.654
22.38000 503.264
22.55000 480.331
22.72000 458.918
22.89000 449.954
23.06000 463.439
23.23000 446.526
23.40000 446.964
23.57000 441.955
23.74000 434.970
23.91000 448.062
24.08000 438.317
24.25000 423.787
24.42000 425.948
24.59000 424.763
24.76000 420.606
24.93000 416.906
25.10000 422.097
25.27000 402.814
25.44000 412.229
25.61000 415.163
25.78000 410.940
25.95000 401.754
26.12000 404.269
26.29000 415.026
26.46000 389.668
26.63000 388.964
26.80000 395.505
26.97000 396.417
27.14000 388.646
27.31000 381.617
27.48000 393.836
27.65000 377.372
27.82000 377.500
27.99000 396.180
28.16000 383.071
28.33000 392.528
28.50000 372.597
28.67000 371.411
28.84000 359.683
29.01000 393.835
29.18000 355.730
29.35000 363.170
29.52000 362.588
29.69000 369.562
29.86000 400.364
30.03000 470.898
30.20000 416.265
30.37000 400.349
30.54000 417.157
30.71000 385.006
30.88000 447.171
31.05000 628.583
31.22000 1728.940
31.39000 3061.181
31.56000 1717.982
31.73000 655.786
31.90000 416.877
32.07000 347.263
32.24000 341.355
32.41000 342.629
32.58000 336.992
32.75000 336.348
32.92000 335.630
33.09000 315.160
33.26000 284.386
33.43000 304.196
33.60000 294.376
33.77000 297.062
33.94000 301.219
34.11000 302.178
34.28000 290.989
34.45000 279.001
34.62000 284.673
34.79000 297.633
34.96000 286.179
35.13000 277.443
35.30000 276.560
35.47000 278.754
35.64000 277.802
35.81000 261.436
35.98000 254.910
36.15000 258.234
36.32000 273.073
36.49000 262.523
36.66000 264.417
36.83000 272.902
37.00000 276.577
37.17000 277.326
37.34000 278.480
37.51000 268.302
37.68000 263.159
37.85000 261.120
38.02000 273.670
38.19000 294.711
38.36000 340.504
38.53000 571.808
38.70000 848.815
38.87000 551.476
39.04000 341.030
39.21000 263.598
39.38000 251.594
39.55000 244.348
39.72000 251.570
39.89000 251.669
40.06000 235.819
40.23000 238.338
40.40000 232.952
40.57000 221.451
40.74000 220.128
40.91000 231.910
41.08000 223.974
41.25000 223.115
41.42000 216.555
41.59000 214.034
41.76000 217.562
41.93000 224.442
42.10000 210.698
42.27000 228.095
42.44000 201.172
42.61000 214.774
42.78000 209.592
42.95000 210.493
43.12000 207.622
43.29000 204.106
43.46000 202.479
43.63000 198.755
43.80000 203.664
43.97000 196.115
44.14000 208.174
44.31000 207.741
44.48000 227.738
44.65000 258.014
44.82000 342.730
44.99000 425.228
45.16000 403.191
45.33000 306.438
45.50000 243.015
45.67000 217.909
45.84000 205.335
46.01000 195.414
46.18000 176.288
46.35000 177.722
46.52000 181.943
46.69000 168.043
46.86000 172.618
47.03000 171.517
47.20000 164.216
47.37000 176.351
47.54000 168.012
47.71000 175.089
47.88000 162.967
48.05000 168.278
48.22000 156.446
48.39000 166.542
48.56000 165.753
48.73000 160.832
48.90000 150.583
49.07000 159.776
49.24000 152.658
49.41000 154.254
49.58000 153.924
49.75000 156.835
49.92000 163.215
50.09000 164.071
50.26000 158.379
50.43000 184.399
50.60000 232.741
50.77000 253.059
50.94000 225.504
51.11000 174.938
51.28000 166.154
51.45000 151.824
51.62000 149.911
51.79000 144.219
51.96000 145.628
52.13000 143.961
52.30000 146.799
52.47000 144.069
52.64000 150.307
52.81000 132.429
52.98000 149.347
53.15000 149.565
53.32000 161.434
53.49000 157.351
53.66000 150.251
53.83000 139.234
54.00000 147.808
54.17000 146.345
54.34000 140.742
54.51000 143.904
54.68000 142.997
54.85000 145.952
55.02000 150.975
55.19000 148.623
55.36000 182.092
55.53000 212.671
55.70000 345.380
55.87000 551.165
56.04000 531.850
56.21000 335.447
56.38000 214.203
56.55000 170.730
56.72000 144.057
56.89000 149.917
57.06000 118.052
57.23000 131.551
57.40000 126.120
57.57000 124.844
57.74000 127.760
57.91000 129.748
58.08000 127.522
58.25000 120.639
58.42000 120.530
58.59000 127.215
58.76000 120.006
58.93000 123.463
59.10000 117.610
59.27000 126.981
59.44000 126.228
59.61000 122.656
59.78000 121.969
59.95000 126.631
60.12000 120.990
60.29000 122.723
60.46000 123.751
60.63000 115.407
60.80000 112.576
60.97000 123.179
61.14000 120.713
61.31000 128.985
61.48000 166.494
61.65000 436.943
61.82000 239.676
61.99000 137.155
62.16000 137.827
62.33000 138.046
62.50000 140.683
62.67000 138.503
62.84000 141.122
63.01000 141.591
63.18000 144.557
63.35000 136.237
63.52000 141.390
63.69000 153.372
63.86000 154.310
64.03000 152.674
64.20000 164.855
64.37000 164.015
64.54000 170.499
64.71000 194.063
64.88000 201.424
65.05000 232.687
65.22000 275.003
65.39000 375.996
65.56000 549.704
65.73000 1873.879
65.90000 3289.031
66.07000 714.384
66.24000 557.289
66.41000 963.985
66.58000 562.190
66.75000 472.951
66.92000 490.715
67.09000 486.728
67.26000 522.404
67.43000 535.516
67.60000 546.869
67.77000 616.407
67.94000 640.041
68.11000 690.538
68.28000 738.957
68.45000 897.648
68.62000 1315.271
68.79000 2587.463
68.96000 19465.238
69.13000 81835.656
69.30000 43790.102
69.47000 10033.977
69.64000 1287.809
69.81000 797.591
69.98000 630.120
70.00000 608.536

File: BTO_Mapping_Theta2Theta_09-10-2025_001_40_-24-271_-17-634.xy
20.00000 485.250
20.17000 474.633
20.34000 509.870
20.51000 491.497
20.68000 469.570
20.85000 487.369
21.02000 473.873
21.19000 490.841
21.36000 500.262
21.53000 476.473
21.70000 521.474
21.87000 643.359
22.04000 719.424
22.21000 591.175
22.38000 497.832
22.55000 477.382
22.72000 446.862
22.89000 467.173
23.06000 480.434
23.23000 408.549
23.40000 445.793
23.57000 430.615
23.74000 434.011
23.91000 436.437
24.08000 432.192
24.25000 431.992
24.42000 416.741
24.59000 415.081
24.76000 419.285
24.93000 425.786
25.10000 411.846
25.27000 418.655
25.44000 406.644
25.61000 391.605
25.78000 398.820
25.95000 416.171
26.12000 400.498
26.29000 397.209
26.46000 391.782
26.63000 399.046
26.80000 398.720
26.97000 393.705
27.14000 375.649
27.31000 371.050
27.48000 370.090
27.65000 378.648
27.82000 373.582
27.99000 381.322
28.16000 380.964
28.33000 386.598
28.50000 381.894
28.67000 387.811
28.84000 348.483
29.01000 389.379
29.18000 364.506
29.35000 355.735
29.52000 368.453
29.69000 361.195
29.86000 449.631
30.03000 506.214
30.20000 471.094
30.37000 435.130
30.54000 374.231
30.71000 436.764
30.88000 451.786
31.05000 774.496
31.22000 2687.484
31.39000 4249.463
31.56000 1891.482
31.73000 639.724
31.90000 407.152
32.07000 371.438
32.24000 341.520
32.41000 358.619
32.58000 320.953
32.75000 335.454
32.92000 333.611
33.09000 321.431
33.26000 313.119
33.43000 293.617
33.60000 292.646
33.77000 293.057
33.94000 280.711
34.11000 294.790
34.28000 301.511
34.45000 295.455
34.62000 284.292
34.79000 281.582
34.96000 269.417
35.13000 266.953
35.30000 280.124
35.47000 292.121
35.64000 285.732
35.81000 279.812
35.98000 276.925
36.15000 261.606
36.32000 264.637
36.49000 258.412
36.66000 258.244
36.83000 280.172
37.00000 287.360
37.17000 271.180
37.34000 260.344
37.51000 266.134
37.68000 271.949
37.85000 266.213
38.02000 278.284
38.19000 294.338
38.36000 379.039
38.53000 556.055
38.70000 662.678
38.87000 442.867
39.04000 290.341
39.21000 259.306
39.38000 236.344
39.55000 245.671
39.72000 237.583
39.89000 242.808
40.06000 242.640
40.23000 233.438
40.40000 242.332
40.57000 227.726
40.74000 232.587
40.91000 224.174
41.08000 228.176
41.25000 215.573
41.42000 222.947
41.59000 218.061
41.76000 224.449
41.93000 221.908
42.10000 211.911
42.27000 195.727
42.44000 215.723
42.61000 212.961
42.78000 215.186
42.95000 209.963
43.12000 206.983
43.29000 201.168
43.46000 208.268
43.63000 217.139
43.80000 199.685
43.97000 194.287
44.14000 211.165
44.31000 226.005
44.48000 238.121
44.65000 281.002
44.82000 374.163
44.99000 444.580
45.16000 370.713
45.33000 282.538
45.50000 238.754
45.67000 213.818
45.84000 207.409
46.01000 194.317
46.18000 177.017
46.35000 177.730
46.52000 182.339
46.69000 174.098
46.86000 184.962
47.03000 175.059
47.20000 176.790
47.37000 166.098
47.54000 167.921
47.71000 171.960
47.88000 165.878
48.05000 162.952
48.22000 167.300
48.39000 169.399
48.56000 165.344
48.73000 163.320
48.90000 159.456
49.07000 168.088
49.24000 154.802
49.41000 159.545
49.58000 149.035
49.75000 160.695
49.92000 156.366
50.09000 163.975
50.26000 185.919
50.43000 226.613
50.60000 244.710
50.77000 240.020
50.94000 192.106
51.11000 183.884
51.28000 165.634
51.45000 161.884
51.62000 142.219
51.79000 144.270
51.96000 145.739
52.13000 146.435
52.30000 153.309
52.47000 154.616
52.64000 141.674
52.81000 148.279
52.98000 143.867
53.15000 150.380
53.32000 161.353
53.49000 157.594
53.66000 145.676
53.83000 147.243
54.00000 146.414
54.17000 147.681
54.34000 145.026
54.51000 151.938
54.68000 143.036
54.85000 147.136
55.02000 151.264
55.19000 160.253
55.36000 187.256
55.53000 254.785
55.70000 412.918
55.87000 516.960
56.04000 404.143
56.21000 263.537
56.38000 192.686
56.55000 161.878
56.72000 143.820
56.89000 141.117
57.06000 140.456
57.23000 127.219
57.40000 139.553
57.57000 131.289
57.74000 125.416
57.91000 123.239
58.08000 118.872
58.25000 126.393
58.42000 141.092
58.59000 112.324
58.76000 122.684
58.93000 121.214
59.10000 118.588
59.27000 116.065
59.44000 122.975
59.61000 122.561
59.78000 114.163
59.95000 130.295
60.12000 122.902
60.29000 117.746
60.46000 116.571
60.63000 115.458
60.80000 115.813
60.97000 122.826
61.14000 123.430
61.31000 129.143
61.48000 148.163
61.65000 416.926
61.82000 266.453
61.99000 144.385
62.16000 145.376
62.33000 140.549
62.50000 141.058
62.67000 132.551
62.84000 140.712
63.01000 144.512
63.18000 141.153
63.35000 141.830
63.52000 144.451
63.69000 146.731
63.86000 141.630
64.03000 156.561
64.20000 166.596
64.37000 164.223
64.54000 171.515
64.71000 177.638
64.88000 203.736
65.05000 242.351
65.22000 326.688
65.39000 480.715
65.56000 593.476
65.73000 1716.106
65.90000 3331.276
66.07000 738.214
66.24000 542.093
66.41000 964.713
66.58000 578.784
66.75000 466.558
66.92000 468.756
67.09000 499.151
67.26000 504.734
67.43000 560.084
67.60000 576.410
67.77000 592.645
67.94000 613.079
68.11000 657.815
68.28000 726.817
68.45000 877.042
68.62000 1273.457
68.79000 2590.065
68.96000 17287.270
69.13000 80579.820
69.30000 44038.988
69.47000 10965.602
69.64000 1319.793
69.81000 804.174
69.98000 614.139
70.00000 583.864

File: BTO_Mapping_Theta2Theta_09-10-2025_001_42_-5-000_-8-660.xy
20.00000 503.017
20.17000 492.892
20.34000 495.925
20.51000 505.865
20.68000 486.380
20.85000 490.142
21.02000 489.172
21.19000 482.640
21.36000 481.304
21.53000 498.482
21.70000 485.957
21.87000 565.233
22.04000 691.878
22.21000 628.315
22.38000 524.431
22.55000 470.315
22.72000 452.410
22.89000 454.581
23.06000 446.599
23.23000 433.702
23.40000 423.719
23.57000 434.737
23.74000 443.754
23.91000 438.987
24.08000 425.344
24.25000 424.793
24.42000 407.437
24.59000 446.066
24.76000 411.832
24.93000 409.108
25.10000 418.725
25.27000 421.862
25.44000 397.138
25.61000 400.726
25.78000 390.590
25.95000 384.151
26.12000 391.599
26.29000 384.871
26.46000 394.857
26.63000 393.421
26.80000 379.575
26.97000 376.660
27.14000 360.777
27.31000 364.311
27.48000 386.650
27.65000 384.528
27.82000 377.040
27.99000 370.284
28.16000 386.304
28.33000 369.093
28.50000 380.849
28.67000 369.038
28.84000 386.246
29.01000 357.445
29.18000 370.200
29.35000 363.871
29.52000 369.438
29.69000 375.929
29.86000 408.396
30.03000 474.348
30.20000 431.022
30.37000 407.390
30.54000 395.501
30.71000 422.842
30.88000 472.318
31.05000 653.753
31.22000 1637.254
31.39000 3102.084
31.56000 1803.183
31.73000 698.897
31.90000 427.923
32.07000 377.699
32.24000 356.947
32.41000 336.514
32.58000 329.832
32.75000 345.802
32.92000 324.637
33.09000 306.956
33.26000 320.161
33.43000 304.919
33.60000 286.087
33.77000 310.862
33.94000 282.074
34.11000 291.683
34.28000 294.742
34.45000 278.653
34.62000 274.840
34.79000 291.010
34.96000 271.080
35.13000 274.745
35.30000 281.010
35.47000 276.149
35.64000 267.735
35.81000 265.335
35.98000 265.500
36.15000 257.162
36.32000 261.000
36.49000 250.735
36.66000 261.679
36.83000 290.259
37.00000 296.474
37.17000 266.595
37.34000 265.918
37.51000 243.910
37.68000 262.444
37.85000 269.496
38.02000 264.909
38.19000 292.918
38.36000 325.838
38.53000 596.776
38.70000 998.699
38.87000 675.773
39.04000 349.305
39.21000 260.130
39.38000 264.323
39.55000 245.005
39.72000 237.087
39.89000 236.177
40.06000 237.326
40.23000 234.218
40.40000 220.039
40.57000 231.372
40.74000 222.499
40.91000 228.205
41.08000 221.442
41.25000 228.151
41.42000 216.785
41.59000 219.014
41.76000 212.183
41.93000 218.286
42.10000 206.732
42.27000 205.205
42.44000 214.184
42.61000 205.001
42.78000 210.216
42.95000 198.737
43.12000 206.180
43.29000 202.197
43.46000 201.167
43.63000 192.232
43.80000 207.259
43.97000 200.629
44.14000 207.475
44.31000 209.177
44.48000 201.798
44.65000 221.434
44.82000 270.994
44.99000 351.645
45.16000 385.912
45.33000 301.692
45.50000 265.314
45.67000 226.201
45.84000 210.332
46.01000 186.641
46.18000 181.447
46.35000 173.262
46.52000 191.242
46.69000 176.186
46.86000 176.955
47.03000 173.401
47.20000 171.348
47.37000 173.039
47.54000 173.352
47.71000 167.636
47.88000 168.155
48.05000 166.459
48.22000 163.694
48.39000 155.807
48.56000 153.316
48.73000 167.789
48.90000 160.211
49.07000 156.296
49.24000 163.496
49.41000 153.893
49.58000 155.775
49.75000 149.682
49.92000 160.327
50.09000 168.564
50.26000 173.284
50.43000 182.225
50.60000 228.092
50.77000 237.867
50.94000 193.004
51.11000 160.490
51.28000 168.595
51.45000 160.689
51.62000 150.163
51.79000 157.735
51.96000 159.384
52.13000 138.329
52.30000 145.295
52.47000 138.784
52.64000 138.572
52.81000 140.941
52.98000 129.398
53.15000 140.937
53.32000 150.488
53.49000 163.924
53.66000 142.202
53.83000 135.757
54.00000 141.016
54.17000 145.028
54.34000 145.059
54.51000 145.878
54.68000 140.355
54.85000 144.643
55.02000 148.582
55.19000 157.088
55.36000 162.255
55.53000 182.023
55.70000 282.888
55.87000 491.314
56.04000 551.711
56.21000 352.144
56.38000 220.945
56.55000 170.874
56.72000 148.524
56.89000 137.315
57.06000 129.558
57.23000 142.822
57.40000 135.622
57.57000 136.114
57.74000 126.351
57.91000 129.882
58.08000 123.471
58.25000 124.346
58.42000 135.680
58.59000 130.634
58.76000 122.505
58.93000 130.177
59.10000 127.495
59.27000 121.398
59.44000 116.319
59.61000 123.431
59.78000 116.827
59.95000 115.135
60.12000 120.819
60.29000 117.540
60.46000 118.843
60.63000 123.641
60.80000 115.897
60.97000 120.609
61.14000 126.033
61.31000 127.804
61.48000 151.893
61.65000 404.848
61.82000 241.717
61.99000 144.186
62.16000 139.368
62.33000 134.713
62.50000 139.745
62.67000 141.982
62.84000 136.309
63.01000 155.516
63.18000 146.320
63.35000 145.999
63.52000 161.795
63.69000 149.527
63.86000 148.437
64.03000 145.297
64.20000 156.953
64.37000 166.991
64.54000 171.511
64.71000 193.040
64.88000 196.180
65.05000 212.458
65.22000 262.105
65.39000 356.532
65.56000 538.321
65.73000 1743.906
65.90000 2998.017
66.07000 703.319
66.24000 516.508
66.41000 878.812
66.58000 539.975
66.75000 442.902
66.92000 452.925
67.09000 471.725
67.26000 499.199
67.43000 503.193
67.60000 552.957
67.77000 583.086
67.94000 595.912
68.11000 648.215
68.28000 719.296
68.45000 830.053
68.62000 1245.365
68.79000 2425.491
68.96000 17929.420
69.13000 74424.258
69.30000 39431.031
69.47000 8806.921
69.64000 1229.198
69.81000 786.703
69.98000 599.742
70.00000 580.657

File: BTO_Mapping_Theta2Theta_09-10-2025_001_50_3-090_-9-511.xy
20.00000 498.276
20.17000 475.332
20.34000 497.242
20.51000 475.719
20.68000 486.986
20.85000 478.726
21.02000 494.491
21.19000 467.147
21.36000 480.033
21.53000 498.784
21.70000 502.195
21.87000 551.470
22.04000 636.205
22.21000 619.351
22.38000 525.017
22.55000 466.642
22.72000 471.021
22.89000 453.534
23.06000 421.477
23.23000 439.706
23.40000 426.524
23.57000 432.669
23.74000 442.027
23.91000 441.847
24.08000 428.344
24.25000 432.078
24.42000 418.328
24.59000 418.032
24.76000 419.671
24.93000 437.805
25.10000 423.609
25.27000 410.815
25.44000 392.350
25.61000 410.165
25.78000 403.674
25.95000 395.116
26.12000 396.070
26.29000 394.211
26.46000 388.124
26.63000 393.185
26.80000 395.426
26.97000 386.575
27.14000 376.252
27.31000 357.132
27.48000 386.907
27.65000 361.573
27.82000 371.459
27.99000 367.919
28.16000 375.163
28.33000 380.943
28.50000 371.034
28.67000 366.215
28.84000 356.153
29.01000 351.936
29.18000 371.791
29.35000 366.958
29.52000 362.711
29.69000 370.272
29.86000 394.451
30.03000 462.684
30.20000 446.778
30.37000 395.964
30.54000 407.657
30.71000 433.521
30.88000 455.324
31.05000 642.776
31.22000 1622.893
31.39000 3208.280
31.56000 1931.682
31.73000 759.197
31.90000 444.780
32.07000 378.846
32.24000 350.920
32.41000 337.938
32.58000 341.622
32.75000 328.559
32.92000 323.729
33.09000 321.634
33.26000 302.128
33.43000 286.817
33.60000 293.021
33.77000 311.886
33.94000 293.097
34.11000 303.577
34.28000 300.670
34.45000 290.251
34.62000 288.133
34.79000 290.346
34.96000 308.120
35.13000 277.288
35.30000 255.720
35.47000 271.313
35.64000 259.683
35.81000 282.933
35.98000 265.531
36.15000 263.104
36.32000 265.616
36.49000 263.843
36.66000 265.191
36.83000 284.016
37.00000 285.113
37.17000 283.400
37.34000 278.254
37.51000 274.538
37.68000 258.767
37.85000 265.746
38.02000 261.746
38.19000 281.174
38.36000 319.988
38.53000 579.016
38.70000 1098.845
38.87000 760.373
39.04000 354.254
39.21000 259.006
39.38000 258.618
39.55000 242.961
39.72000 239.816
39.89000 234.473
40.06000 239.110
40.23000 236.305
40.40000 229.787
40.57000 220.200
40.74000 208.706
40.91000 223.514
41.08000 211.573
41.25000 220.157
41.42000 223.775
41.59000 210.291
41.76000 212.537
41.93000 219.226
42.10000 199.919
42.27000 195.351
42.44000 205.025
42.61000 206.532
42.78000 210.998
42.95000 190.448
43.12000 198.869
43.29000 209.108
43.46000 196.268
43.63000 211.414
43.80000 203.676
43.97000 195.110
44.14000 204.782
44.31000 208.254
44.48000 212.002
44.65000 211.444
44.82000 238.457
44.99000 292.174
45.16000 338.399
45.33000 299.484
45.50000 265.847
45.67000 225.587
45.84000 201.500
46.01000 195.937
46.18000 190.361
46.35000 184.830
46.52000 182.076
46.69000 187.729
46.86000 174.637
47.03000 163.897
47.20000 169.457
47.37000 159.593
47.54000 169.666
47.71000 179.156
47.88000 164.976
48.05000 169.076
48.22000 174.690
48.39000 172.510
48.56000 160.673
48.73000 166.978
48.90000 160.387
49.07000 159.478
49.24000 149.390
49.41000 148.627
49.58000 150.546
49.75000 153.228
49.92000 160.557
50.09000 159.809
50.26000 163.033
50.43000 182.181
50.60000 206.200
50.77000 225.846
50.94000 210.436
51.11000 184.587
51.28000 154.567
51.45000 155.588
51.62000 155.409
51.79000 146.415
51.96000 147.713
52.13000 144.231
52.30000 139.879
52.47000 137.248
52.64000 146.380
52.81000 150.239
52.98000 138.263
53.15000 140.946
53.32000 153.011
53.49000 158.924
53.66000 145.967
53.83000 148.475
54.00000 134.427
54.17000 139.024
54.34000 138.668
54.51000 143.444
54.68000 146.704
54.85000 145.601
55.02000 144.525
55.19000 146.996
55.36000 147.868
55.53000 174.072
55.70000 267.450
55.87000 475.524
56.04000 524.537
56.21000 362.795
56.38000 219.146
56.55000 154.543
56.72000 160.333
56.89000 142.546
57.06000 142.325
57.23000 137.424
57.40000 125.690
57.57000 125.085
57.74000 128.300
57.91000 124.635
58.08000 121.265
58.25000 122.091
58.42000 128.923
58.59000 119.726
58.76000 134.013
58.93000 120.237
59.10000 119.808
59.27000 115.272
59.44000 120.156
59.61000 121.925
59.78000 122.149
59.95000 124.889
60.12000 111.842
60.29000 120.721
60.46000 120.697
60.63000 115.980
60.80000 127.104
60.97000 118.621
61.14000 131.721
61.31000 114.155
61.48000 130.535
61.65000 361.385
61.82000 214.952
61.99000 141.785
62.16000 131.818
62.33000 133.397
62.50000 142.927
62.67000 135.935
62.84000 144.915
63.01000 139.090
63.18000 139.975
63.35000 142.441
63.52000 139.643
63.69000 139.638
63.86000 144.907
64.03000 150.939
64.20000 164.657
64.37000 163.602
64.54000 180.318
64.71000 179.467
64.88000 206.401
65.05000 224.359
65.22000 246.796
65.39000 344.187
65.56000 507.928
65.73000 1532.160
65.90000 2666.154
66.07000 610.096
66.24000 500.009
66.41000 787.082
66.58000 488.650
66.75000 416.174
66.92000 412.336
67.09000 434.050
67.26000 450.649
67.43000 482.480
67.60000 500.681
67.77000 518.253
67.94000 569.113
68.11000 601.114
68.28000 665.542
68.45000 758.314
68.62000 1146.011
68.79000 2142.745
68.96000 15260.932
69.13000 64387.727
69.30000 34099.781
69.47000 7630.140
69.64000 1132.085
69.81000 717.411
69.98000 568.887
70.00000 559.346