Folder: Master-Thesis/XRD/09-10-2025 Dep 8/XY Data (part 2)

File: BTO_Mapping_Theta2Theta_09-10-2025_001_14_3-090_9-511.xy
20.00000 475.545
20.17000 485.502
20.34000 473.859
20.51000 488.161
20.68000 465.200
20.85000 461.567
21.02000 502.914
21.19000 472.212
21.36000 480.983
21.53000 472.104
21.70000 474.878
21.87000 530.818
22.04000 620.580
22.21000 613.458
22.38000 532.397
22.55000 467.071
22.72000 459.001
22.89000 432.187
23.06000 433.176
23.23000 426.406
23.40000 443.643
23.57000 423.111
23.74000 418.384
23.91000 430.830
24.08000 437.757
24.25000 413.956
24.42000 428.062
24.59000 418.341
24.76000 418.095
24.93000 406.644
25.10000 394.591
25.27000 400.571
25.44000 398.588
25.61000 410.133
25.78000 387.319
25.95000 403.525
26.12000 389.475
26.29000 411.260
26.46000 396.403
26.63000 377.796
26.80000 383.127
26.97000 391.636
27.14000 391.664
27.31000 383.259
27.48000 374.355
27.65000 393.940
27.82000 375.405
27.99000 379.468
28.16000 382.915
28.33000 383.497
28.50000 357.712
28.67000 361.665
28.84000 372.818
29.01000 359.556
29.18000 377.349
29.35000 364.211
29.52000 372.166
29.69000 371.449
29.86000 391.549
30.03000 467.621
30.20000 430.332
30.37000 409.348
30.54000 413.451
30.71000 401.007
30.88000 456.246
31.05000 591.081
31.22000 1502.752
31.39000 3132.834
31.56000 1983.788
31.73000 734.449
31.90000 461.667
32.07000 379.046
32.24000 348.780
32.41000 339.390
32.58000 321.352
32.75000 330.682
32.92000 328.164
33.09000 314.480
33.26000 315.596
33.43000 302.284
33.60000 285.259
33.77000 296.722
33.94000 296.166
34.11000 299.470
34.28000 281.773
34.45000 285.729
34.62000 293.491
34.79000 284.774
34.96000 286.702
35.13000 280.794
35.30000 267.557
35.47000 283.180
35.64000 264.207
35.81000 263.000
35.98000 271.885
36.15000 261.649
36.32000 276.488
36.49000 251.930
36.66000 258.618
36.83000 260.285
37.00000 278.611
37.17000 272.210
37.34000 270.013
37.51000 263.187
37.68000 250.637
37.85000 260.420
38.02000 271.921
38.19000 264.514
38.36000 303.996
38.53000 522.703
38.70000 1025.651
38.87000 797.492
39.04000 335.960
39.21000 279.221
39.38000 262.431
39.55000 234.884
39.72000 232.935
39.89000 241.459
40.06000 228.677
40.23000 233.375
40.40000 216.524
40.57000 215.434
40.74000 235.933
40.91000 216.932
41.08000 219.075
41.25000 209.930
41.42000 215.272
41.59000 222.734
41.76000 208.970
41.93000 215.302
42.10000 198.261
42.27000 214.248
42.44000 202.261
42.61000 201.968
42.78000 202.431
42.95000 206.484
43.12000 211.485
43.29000 194.154
43.46000 201.851
43.63000 191.868
43.80000 201.428
43.97000 191.773
44.14000 190.917
44.31000 202.976
44.48000 202.383
44.65000 211.016
44.82000 230.571
44.99000 277.936
45.16000 318.821
45.33000 298.700
45.50000 256.368
45.67000 221.626
45.84000 214.620
46.01000 201.742
46.18000 182.217
46.35000 177.743
46.52000 176.449
46.69000 170.767
46.86000 169.948
47.03000 169.539
47.20000 162.337
47.37000 171.821
47.54000 165.794
47.71000 160.872
47.88000 170.522
48.05000 155.796
48.22000 169.702
48.39000 168.206
48.56000 158.560
48.73000 163.321
48.90000 155.162
49.07000 153.253
49.24000 158.478
49.41000 156.523
49.58000 152.196
49.75000 158.441
49.92000 154.819
50.09000 145.246
50.26000 159.442
50.43000 173.239
50.60000 206.868
50.77000 229.439
50.94000 208.289
51.11000 170.787
51.28000 149.286
51.45000 153.795
51.62000 147.249
51.79000 145.492
51.96000 144.848
52.13000 135.946
52.30000 150.529
52.47000 138.127
52.64000 136.629
52.81000 151.240
52.98000 143.090
53.15000 139.268
53.32000 151.065
53.49000 160.646
53.66000 148.128
53.83000 142.565
54.00000 142.548
54.17000 144.162
54.34000 138.718
54.51000 141.880
54.68000 149.766
54.85000 153.350
55.02000 135.247
55.19000 156.553
55.36000 161.966
55.53000 185.240
55.70000 238.655
55.87000 460.590
56.04000 549.254
56.21000 373.265
56.38000 210.460
56.55000 171.306
56.72000 156.467
56.89000 144.034
57.06000 141.598
57.23000 130.978
57.40000 130.070
57.57000 134.930
57.74000 141.511
57.91000 123.612
58.08000 131.167
58.25000 123.465
58.42000 109.363
58.59000 132.211
58.76000 124.703
58.93000 113.266
59.10000 121.946
59.27000 113.573
59.44000 124.924
59.61000 117.883
59.78000 128.528
59.95000 118.055
60.12000 112.369
60.29000 112.654
60.46000 127.455
60.63000 116.245
60.80000 121.838
60.97000 119.474
61.14000 122.738
61.31000 132.232
61.48000 131.605
61.65000 352.342
61.82000 209.049
61.99000 133.759
62.16000 124.521
62.33000 125.753
62.50000 137.788
62.67000 146.333
62.84000 130.830
63.01000 134.589
63.18000 129.938
63.35000 129.029
63.52000 133.850
63.69000 143.092
63.86000 144.078
64.03000 141.488
64.20000 157.649
64.37000 160.391
64.54000 157.363
64.71000 162.649
64.88000 201.392
65.05000 200.302
65.22000 229.276
65.39000 343.116
65.56000 483.047
65.73000 1412.291
65.90000 2425.518
66.07000 614.400
66.24000 475.808
66.41000 765.192
66.58000 471.739
66.75000 400.642
66.92000 407.618
67.09000 433.814
67.26000 443.351
67.43000 447.283
67.60000 480.057
67.77000 504.012
67.94000 546.804
68.11000 581.166
68.28000 633.000
68.45000 727.673
68.62000 1082.062
68.79000 2018.274
68.96000 13699.604
69.13000 58356.914
69.30000 31019.439
69.47000 6986.650
69.64000 1049.211
69.81000 690.712
69.98000 541.411
70.00000 547.720

File: BTO_Mapping_Theta2Theta_09-10-2025_001_17_12-361_38-042.xy
20.00000 473.093
20.17000 505.057
20.34000 463.271
20.51000 472.214
20.68000 461.634
20.85000 451.565
21.02000 464.508
21.19000 464.787
21.36000 485.254
21.53000 479.215
21.70000 469.057
21.87000 511.337
22.04000 578.785
22.21000 578.977
22.38000 522.753
22.55000 483.632
22.72000 457.479
22.89000 431.762
23.06000 434.969
23.23000 440.988
23.40000 427.625
23.57000 420.677
23.74000 444.924
23.91000 470.927
24.08000 445.668
24.25000 433.388
24.42000 442.995
24.59000 431.231
24.76000 389.239
24.93000 413.328
25.10000 419.177
25.27000 399.313
25.44000 391.444
25.61000 402.333
25.78000 403.835
25.95000 388.276
26.12000 392.795
26.29000 388.331
26.46000 376.098
26.63000 384.372
26.80000 378.341
26.97000 390.231
27.14000 374.249
27.31000 382.422
27.48000 370.952
27.65000 366.075
27.82000 358.814
27.99000 372.551
28.16000 375.352
28.33000 357.122
28.50000 369.212
28.67000 348.929
28.84000 368.216
29.01000 355.753
29.18000 365.258
29.35000 347.046
29.52000 356.721
29.69000 358.210
29.86000 367.055
30.03000 397.445
30.20000 395.890
30.37000 383.409
30.54000 361.374
30.71000 370.253
30.88000 389.237
31.05000 459.891
31.22000 781.723
31.39000 1730.012
31.56000 1558.479
31.73000 718.543
31.90000 435.283
32.07000 371.347
32.24000 339.076
32.41000 349.396
32.58000 330.372
32.75000 319.282
32.92000 309.679
33.09000 300.393
33.26000 309.626
33.43000 308.169
33.60000 283.272
33.77000 287.725
33.94000 270.396
34.11000 284.211
34.28000 283.293
34.45000 297.896
34.62000 284.423
34.79000 290.319
34.96000 270.777
35.13000 270.284
35.30000 278.232
35.47000 259.280
35.64000 277.659
35.81000 266.585
35.98000 269.420
36.15000 267.467
36.32000 271.496
36.49000 241.580
36.66000 255.585
36.83000 261.004
37.00000 268.924
37.17000 280.370
37.34000 257.942
37.51000 263.488
37.68000 271.123
37.85000 248.695
38.02000 257.075
38.19000 272.302
38.36000 277.237
38.53000 398.370
38.70000 872.490
38.87000 967.700
39.04000 413.913
39.21000 288.171
39.38000 255.044
39.55000 233.552
39.72000 243.063
39.89000 216.837
40.06000 234.646
40.23000 225.254
40.40000 219.408
40.57000 214.315
40.74000 215.136
40.91000 216.339
41.08000 204.049
41.25000 210.645
41.42000 215.394
41.59000 197.639
41.76000 208.708
41.93000 210.912
42.10000 211.112
42.27000 201.105
42.44000 203.294
42.61000 213.033
42.78000 198.501
42.95000 204.873
43.12000 210.372
43.29000 196.538
43.46000 192.739
43.63000 175.670
43.80000 200.463
43.97000 194.366
44.14000 182.945
44.31000 185.039
44.48000 202.121
44.65000 200.803
44.82000 220.095
44.99000 243.683
45.16000 266.354
45.33000 263.828
45.50000 252.723
45.67000 228.526
45.84000 200.287
46.01000 187.882
46.18000 190.050
46.35000 178.146
46.52000 178.673
46.69000 171.830
46.86000 162.838
47.03000 179.607
47.20000 170.541
47.37000 160.374
47.54000 158.986
47.71000 163.211
47.88000 162.599
48.05000 159.124
48.22000 159.316
48.39000 157.227
48.56000 165.359
48.73000 161.436
48.90000 157.919
49.07000 153.041
49.24000 154.779
49.41000 155.627
49.58000 151.184
49.75000 148.386
49.92000 148.394
50.09000 150.824
50.26000 159.136
50.43000 162.936
50.60000 185.765
50.77000 211.183
50.94000 200.443
51.11000 174.313
51.28000 164.159
51.45000 152.973
51.62000 145.885
51.79000 144.597
51.96000 148.954
52.13000 143.912
52.30000 140.774
52.47000 148.101
52.64000 141.633
52.81000 148.611
52.98000 141.115
53.15000 140.900
53.32000 151.451
53.49000 148.604
53.66000 142.535
53.83000 138.478
54.00000 135.326
54.17000 144.914
54.34000 134.588
54.51000 143.760
54.68000 137.980
54.85000 146.130
55.02000 139.404
55.19000 135.426
55.36000 143.693
55.53000 156.379
55.70000 201.451
55.87000 362.668
56.04000 558.997
56.21000 452.278
56.38000 270.889
56.55000 189.797
56.72000 154.680
56.89000 130.895
57.06000 129.544
57.23000 127.936
57.40000 123.559
57.57000 126.868
57.74000 127.837
57.91000 120.908
58.08000 122.814
58.25000 118.288
58.42000 117.874
58.59000 118.845
58.76000 117.800
58.93000 120.665
59.10000 114.317
59.27000 113.215
59.44000 116.357
59.61000 114.428
59.78000 112.861
59.95000 121.463
60.12000 119.795
60.29000 122.004
60.46000 119.608
60.63000 124.541
60.80000 114.708
60.97000 122.822
61.14000 126.696
61.31000 117.190
61.48000 132.629
61.65000 303.204
61.82000 201.283
61.99000 124.978
62.16000 128.830
62.33000 134.966
62.50000 129.355
62.67000 131.685
62.84000 135.970
63.01000 129.060
63.18000 133.128
63.35000 142.594
63.52000 136.368
63.69000 139.984
63.86000 141.907
64.03000 155.847
64.20000 156.128
64.37000 159.228
64.54000 148.534
64.71000 165.282
64.88000 168.750
65.05000 196.995
65.22000 214.138
65.39000 263.470
65.56000 363.640
65.73000 1111.799
65.90000 2100.541
66.07000 586.996
66.24000 411.369
66.41000 692.827
66.58000 440.925
66.75000 368.927
66.92000 399.068
67.09000 407.938
67.26000 412.871
67.43000 438.591
67.60000 465.851
67.77000 498.940
67.94000 506.584
68.11000 567.241
68.28000 599.578
68.45000 712.171
68.62000 989.879
68.79000 1811.064
68.96000 10147.543
69.13000 50620.402
69.30000 28129.236
69.47000 7166.694
69.64000 1034.618
69.81000 676.929
69.98000 529.358
70.00000 501.324

File: BTO_Mapping_Theta2Theta_09-10-2025_001_20_-3-136_29-836.xy
20.00000 493.179
20.17000 476.276
20.34000 459.282
20.51000 485.349
20.68000 469.814
20.85000 487.897
21.02000 469.077
21.19000 484.224
21.36000 463.259
21.53000 455.889
21.70000 460.566
21.87000 522.818
22.04000 595.309
22.21000 593.563
22.38000 526.691
22.55000 485.973
22.72000 451.220
22.89000 452.275
23.06000 437.918
23.23000 430.755
23.40000 435.634
23.57000 438.794
23.74000 431.715
23.91000 438.775
24.08000 412.547
24.25000 424.955
24.42000 417.310
24.59000 408.702
24.76000 406.641
24.93000 413.531
25.10000 407.642
25.27000 401.038
25.44000 399.930
25.61000 404.255
25.78000 400.039
25.95000 405.112
26.12000 416.463
26.29000 375.523
26.46000 394.172
26.63000 381.663
26.80000 394.501
26.97000 394.208
27.14000 388.276
27.31000 371.411
27.48000 379.122
27.65000 372.013
27.82000 371.834
27.99000 381.114
28.16000 365.146
28.33000 385.320
28.50000 370.474
28.67000 376.124
28.84000 353.824
29.01000 375.722
29.18000 347.155
29.35000 368.736
29.52000 364.045
29.69000 369.304
29.86000 397.145
30.03000 457.383
30.20000 437.927
30.37000 398.384
30.54000 399.831
30.71000 393.921
30.88000 435.476
31.05000 529.473
31.22000 1183.461
31.39000 2720.900
31.56000 2033.598
31.73000 800.989
31.90000 438.612
32.07000 376.959
32.24000 351.912
32.41000 344.466
32.58000 343.099
32.75000 327.493
32.92000 315.853
33.09000 292.988
33.26000 301.727
33.43000 297.322
33.60000 291.126
33.77000 285.498
33.94000 289.329
34.11000 278.419
34.28000 282.221
34.45000 274.949
34.62000 277.527
34.79000 286.534
34.96000 279.642
35.13000 292.324
35.30000 270.312
35.47000 279.138
35.64000 258.772
35.81000 259.257
35.98000 268.248
36.15000 251.297
36.32000 236.061
36.49000 249.995
36.66000 261.617
36.83000 264.841
37.00000 298.107
37.17000 276.196
37.34000 252.382
37.51000 256.747
37.68000 256.307
37.85000 262.994
38.02000 266.315
38.19000 270.250
38.36000 305.848
38.53000 473.484
38.70000 1031.364
38.87000 916.910
39.04000 392.500
39.21000 287.763
39.38000 254.116
39.55000 227.875
39.72000 238.922
39.89000 230.039
40.06000 231.280
40.23000 226.176
40.40000 216.618
40.57000 223.583
40.74000 218.693
40.91000 235.071
41.08000 211.119
41.25000 218.527
41.42000 213.802
41.59000 204.603
41.76000 210.375
41.93000 215.499
42.10000 221.092
42.27000 198.822
42.44000 210.328
42.61000 186.425
42.78000 191.113
42.95000 208.955
43.12000 194.036
43.29000 195.098
43.46000 203.867
43.63000 175.586
43.80000 196.281
43.97000 201.191
44.14000 202.877
44.31000 200.224
44.48000 196.945
44.65000 195.846
44.82000 219.094
44.99000 262.270
45.16000 296.499
45.33000 273.305
45.50000 245.726
45.67000 224.255
45.84000 208.166
46.01000 207.564
46.18000 194.290
46.35000 185.857
46.52000 174.323
46.69000 178.968
46.86000 179.311
47.03000 157.963
47.20000 171.126
47.37000 165.837
47.54000 167.405
47.71000 149.647
47.88000 158.321
48.05000 158.774
48.22000 159.841
48.39000 162.835
48.56000 169.186
48.73000 155.610
48.90000 154.210
49.07000 166.841
49.24000 160.329
49.41000 157.582
49.58000 155.710
49.75000 164.910
49.92000 165.000
50.09000 160.976
50.26000 141.311
50.43000 166.621
50.60000 190.797
50.77000 230.769
50.94000 197.476
51.11000 178.709
51.28000 156.612
51.45000 154.777
51.62000 148.112
51.79000 143.368
51.96000 136.062
52.13000 139.304
52.30000 137.915
52.47000 138.032
52.64000 146.245
52.81000 142.883
52.98000 137.085
53.15000 143.223
53.32000 133.114
53.49000 155.046
53.66000 147.373
53.83000 149.888
54.00000 131.564
54.17000 133.002
54.34000 143.423
54.51000 134.850
54.68000 144.452
54.85000 131.962
55.02000 142.816
55.19000 152.731
55.36000 143.333
55.53000 167.381
55.70000 225.952
55.87000 412.258
56.04000 545.832
56.21000 400.089
56.38000 244.913
56.55000 174.329
56.72000 161.610
56.89000 142.813
57.06000 133.478
57.23000 142.210
57.40000 123.470
57.57000 123.458
57.74000 129.565
57.91000 129.608
58.08000 124.988
58.25000 131.046
58.42000 123.723
58.59000 120.111
58.76000 129.247
58.93000 113.806
59.10000 121.037
59.27000 114.095
59.44000 117.006
59.61000 111.290
59.78000 121.022
59.95000 115.599
60.12000 124.062
60.29000 127.295
60.46000 109.207
60.63000 109.075
60.80000 113.840
60.97000 113.321
61.14000 125.993
61.31000 124.684
61.48000 124.226
61.65000 312.745
61.82000 207.418
61.99000 128.456
62.16000 130.505
62.33000 126.816
62.50000 136.562
62.67000 132.518
62.84000 143.092
63.01000 134.600
63.18000 133.455
63.35000 132.629
63.52000 127.504
63.69000 145.274
63.86000 149.490
64.03000 144.300
64.20000 161.252
64.37000 161.041
64.54000 169.086
64.71000 178.687
64.88000 185.950
65.05000 202.218
65.22000 216.531
65.39000 296.955
65.56000 451.049
65.73000 1367.228
65.90000 2468.797
66.07000 604.175
66.24000 461.907
66.41000 736.565
66.58000 475.656
66.75000 375.348
66.92000 407.634
67.09000 407.831
67.26000 453.697
67.43000 469.623
67.60000 471.260
67.77000 489.469
67.94000 552.594
68.11000 595.535
68.28000 635.269
68.45000 739.330
68.62000 1058.275
68.79000 2010.915
68.96000 12442.852
69.13000 58228.203
69.30000 31794.531
69.47000 7765.133
69.64000 1090.981
69.81000 692.585
69.98000 551.040
70.00000 529.450

File: BTO_Mapping_Theta2Theta_09-10-2025_001_21_-4-181_39-781.xy
20.00000 470.281
20.17000 482.454
20.34000 486.025
20.51000 476.480
20.68000 475.697
20.85000 472.034
21.02000 476.298
21.19000 489.517
21.36000 476.599
21.53000 471.410
21.70000 469.989
21.87000 511.706
22.04000 559.020
22.21000 594.781
22.38000 529.861
22.55000 462.702
22.72000 456.259
22.89000 447.284
23.06000 428.939
23.23000 457.289
23.40000 434.736
23.57000 429.171
23.74000 416.218
23.91000 440.728
24.08000 416.991
24.25000 430.610
24.42000 430.228
24.59000 385.413
24.76000 412.137
24.93000 385.300
25.10000 405.879
25.27000 407.804
25.44000 406.653
25.61000 402.125
25.78000 418.029
25.95000 398.564
26.12000 382.778
26.29000 387.389
26.46000 376.464
26.63000 394.573
26.80000 389.179
26.97000 368.541
27.14000 376.679
27.31000 390.888
27.48000 344.128
27.65000 382.227
27.82000 365.183
27.99000 362.782
28.16000 372.884
28.33000 366.901
28.50000 361.616
28.67000 362.522
28.84000 369.267
29.01000 370.314
29.18000 369.074
29.35000 356.562
29.52000 348.357
29.69000 374.298
29.86000 376.322
30.03000 427.493
30.20000 417.056
30.37000 412.557
30.54000 383.704
30.71000 403.049
30.88000 426.424
31.05000 489.315
31.22000 1006.045
31.39000 2397.968
31.56000 2071.917
31.73000 850.693
31.90000 500.515
32.07000 398.512
32.24000 349.633
32.41000 354.049
32.58000 338.252
32.75000 325.896
32.92000 302.428
33.09000 319.827
33.26000 290.350
33.43000 314.260
33.60000 289.366
33.77000 292.958
33.94000 289.378
34.11000 280.464
34.28000 289.712
34.45000 272.667
34.62000 287.356
34.79000 266.188
34.96000 273.758
35.13000 276.160
35.30000 269.704
35.47000 261.986
35.64000 268.193
35.81000 264.186
35.98000 269.343
36.15000 258.127
36.32000 270.096
36.49000 265.167
36.66000 259.856
36.83000 267.812
37.00000 275.496
37.17000 282.205
37.34000 251.022
37.51000 262.226
37.68000 266.618
37.85000 256.528
38.02000 252.663
38.19000 278.447
38.36000 295.999
38.53000 414.951
38.70000 970.903
38.87000 969.409
39.04000 402.595
39.21000 277.016
39.38000 243.044
39.55000 254.424
39.72000 244.259
39.89000 234.522
40.06000 220.986
40.23000 228.770
40.40000 226.096
40.57000 221.842
40.74000 222.477
40.91000 214.901
41.08000 220.011
41.25000 221.635
41.42000 208.883
41.59000 207.326
41.76000 201.548
41.93000 206.461
42.10000 202.113
42.27000 205.795
42.44000 201.483
42.61000 194.611
42.78000 203.062
42.95000 196.893
43.12000 202.024
43.29000 204.502
43.46000 189.171
43.63000 199.257
43.80000 193.746
43.97000 180.272
44.14000 190.709
44.31000 194.233
44.48000 192.151
44.65000 188.153
44.82000 203.084
44.99000 246.248
45.16000 283.668
45.33000 280.305
45.50000 254.345
45.67000 235.260
45.84000 196.806
46.01000 195.807
46.18000 191.198
46.35000 180.624
46.52000 161.290
46.69000 179.759
46.86000 174.542
47.03000 164.983
47.20000 171.167
47.37000 164.533
47.54000 174.543
47.71000 165.673
47.88000 162.284
48.05000 160.817
48.22000 173.428
48.39000 163.218
48.56000 163.060
48.73000 149.292
48.90000 161.047
49.07000 148.068
49.24000 156.808
49.41000 142.268
49.58000 160.605
49.75000 159.480
49.92000 154.847
50.09000 148.765
50.26000 159.635
50.43000 166.766
50.60000 190.993
50.77000 222.343
50.94000 210.065
51.11000 189.262
51.28000 154.929
51.45000 147.052
51.62000 157.172
51.79000 142.307
51.96000 138.246
52.13000 145.738
52.30000 142.734
52.47000 149.153
52.64000 139.987
52.81000 140.935
52.98000 146.400
53.15000 143.912
53.32000 149.464
53.49000 150.921
53.66000 145.241
53.83000 145.027
54.00000 138.492
54.17000 136.338
54.34000 137.302
54.51000 145.354
54.68000 137.444
54.85000 135.573
55.02000 144.165
55.19000 140.369
55.36000 142.564
55.53000 160.549
55.70000 192.776
55.87000 357.694
56.04000 549.017
56.21000 424.744
56.38000 257.550
56.55000 183.867
56.72000 167.340
56.89000 142.001
57.06000 138.809
57.23000 124.585
57.40000 122.657
57.57000 132.074
57.74000 123.299
57.91000 133.188
58.08000 127.330
58.25000 116.191
58.42000 123.382
58.59000 116.896
58.76000 126.603
58.93000 124.718
59.10000 120.496
59.27000 123.197
59.44000 117.764
59.61000 115.880
59.78000 119.109
59.95000 117.421
60.12000 118.337
60.29000 122.042
60.46000 109.598
60.63000 122.609
60.80000 118.486
60.97000 113.315
61.14000 121.537
61.31000 132.282
61.48000 135.943
61.65000 326.581
61.82000 228.008
61.99000 131.083
62.16000 126.322
62.33000 140.671
62.50000 136.764
62.67000 133.671
62.84000 128.131
63.01000 136.456
63.18000 134.656
63.35000 136.301
63.52000 147.608
63.69000 145.505
63.86000 146.313
64.03000 150.755
64.20000 154.120
64.37000 156.009
64.54000 158.672
64.71000 176.395
64.88000 179.763
65.05000 204.863
65.22000 220.171
65.39000 278.271
65.56000 414.722
65.73000 1275.169
65.90000 2490.940
66.07000 628.128
66.24000 462.177
66.41000 721.009
66.58000 486.362
66.75000 402.157
66.92000 399.150
67.09000 416.898
67.26000 447.161
67.43000 456.522
67.60000 483.890
67.77000 518.123
67.94000 531.997
68.11000 586.406
68.28000 656.167
68.45000 730.002
68.62000 1013.730
68.79000 1947.463
68.96000 11052.634
69.13000 57270.535
69.30000 32490.604
69.47000 8454.509
69.64000 1119.069
69.81000 709.670
69.98000 561.151
70.00000 545.691

File: BTO_Mapping_Theta2Theta_09-10-2025_001_22_-5-000_8-660.xy
20.00000 486.298
20.17000 484.195
20.34000 487.875
20.51000 479.370
20.68000 472.484
20.85000 476.154
21.02000 493.131
21.19000 474.760
21.36000 454.553
21.53000 476.572
21.70000 496.190
21.87000 553.765
22.04000 636.802
22.21000 620.387
22.38000 519.008
22.55000 464.257
22.72000 458.563
22.89000 458.549
23.06000 440.755
23.23000 455.297
23.40000 422.305
23.57000 433.795
23.74000 435.598
23.91000 422.792
24.08000 438.488
24.25000 413.012
24.42000 403.113
24.59000 427.783
24.76000 420.115
24.93000 404.935
25.10000 414.630
25.27000 411.815
25.44000 411.973
25.61000 394.744
25.78000 397.632
25.95000 393.281
26.12000 411.167
26.29000 396.868
26.46000 395.480
26.63000 388.218
26.80000 378.844
26.97000 392.640
27.14000 377.299
27.31000 398.270
27.48000 377.119
27.65000 373.319
27.82000 352.250
27.99000 374.065
28.16000 368.791
28.33000 374.177
28.50000 386.128
28.67000 365.110
28.84000 348.921
29.01000 376.507
29.18000 352.193
29.35000 366.722
29.52000 357.725
29.69000 358.838
29.86000 394.918
30.03000 471.507
30.20000 436.497
30.37000 419.463
30.54000 396.725
30.71000 405.808
30.88000 476.975
31.05000 627.021
31.22000 1549.359
31.39000 3162.810
31.56000 1927.549
31.73000 716.712
31.90000 445.964
32.07000 392.985
32.24000 350.340
32.41000 348.044
32.58000 337.815
32.75000 324.083
32.92000 329.404
33.09000 316.128
33.26000 297.252
33.43000 307.267
33.60000 292.461
33.77000 298.941
33.94000 296.447
34.11000 304.903
34.28000 292.886
34.45000 273.577
34.62000 301.959
34.79000 281.770
34.96000 288.735
35.13000 281.816
35.30000 280.800
35.47000 284.297
35.64000 270.297
35.81000 268.615
35.98000 263.129
36.15000 255.323
36.32000 277.407
36.49000 269.378
36.66000 265.941
36.83000 274.363
37.00000 287.537
37.17000 264.954
37.34000 267.337
37.51000 260.780
37.68000 253.366
37.85000 254.982
38.02000 267.085
38.19000 285.136
38.36000 323.180
38.53000 563.553
38.70000 1070.120
38.87000 753.479
39.04000 343.822
39.21000 269.484
39.38000 256.590
39.55000 244.476
39.72000 238.151
39.89000 237.331
40.06000 240.495
40.23000 226.656
40.40000 220.174
40.57000 225.831
40.74000 217.062
40.91000 218.133
41.08000 223.505
41.25000 236.699
41.42000 215.887
41.59000 201.764
41.76000 212.629
41.93000 204.991
42.10000 213.788
42.27000 213.898
42.44000 203.169
42.61000 213.736
42.78000 194.443
42.95000 201.292
43.12000 199.568
43.29000 212.813
43.46000 194.928
43.63000 212.684
43.80000 209.694
43.97000 192.136
44.14000 200.523
44.31000 195.975
44.48000 205.354
44.65000 216.223
44.82000 239.842
44.99000 317.910
45.16000 354.518
45.33000 298.337
45.50000 251.732
45.67000 230.177
45.84000 188.838
46.01000 195.303
46.18000 189.249
46.35000 175.569
46.52000 176.766
46.69000 177.376
46.86000 158.888
47.03000 178.563
47.20000 160.934
47.37000 169.765
47.54000 170.850
47.71000 159.210
47.88000 166.789
48.05000 167.345
48.22000 161.949
48.39000 150.652
48.56000 159.579
48.73000 160.796
48.90000 162.946
49.07000 147.782
49.24000 155.917
49.41000 157.962
49.58000 159.178
49.75000 158.402
49.92000 163.460
50.09000 149.643
50.26000 153.540
50.43000 172.887
50.60000 213.174
50.77000 234.754
50.94000 199.396
51.11000 182.483
51.28000 171.138
51.45000 154.372
51.62000 141.375
51.79000 147.098
51.96000 137.033
52.13000 146.041
52.30000 149.038
52.47000 138.816
52.64000 164.417
52.81000 132.309
52.98000 142.915
53.15000 145.903
53.32000 147.095
53.49000 156.983
53.66000 143.594
53.83000 144.604
54.00000 145.182
54.17000 138.088
54.34000 144.549
54.51000 133.677
54.68000 139.361
54.85000 145.417
55.02000 133.268
55.19000 151.123
55.36000 158.503
55.53000 187.442
55.70000 262.589
55.87000 489.334
56.04000 549.814
56.21000 361.203
56.38000 225.822
56.55000 176.300
56.72000 150.727
56.89000 132.735
57.06000 135.782
57.23000 133.720
57.40000 134.469
57.57000 132.420
57.74000 126.721
57.91000 126.656
58.08000 127.853
58.25000 132.231
58.42000 130.429
58.59000 128.672
58.76000 122.251
58.93000 122.618
59.10000 117.913
59.27000 121.674
59.44000 130.767
59.61000 114.339
59.78000 112.538
59.95000 123.703
60.12000 129.363
60.29000 119.558
60.46000 124.099
60.63000 119.629
60.80000 117.546
60.97000 121.972
61.14000 119.302
61.31000 123.619
61.48000 137.257
61.65000 345.942
61.82000 218.183
61.99000 138.708
62.16000 140.870
62.33000 131.612
62.50000 132.955
62.67000 137.178
62.84000 139.276
63.01000 134.845
63.18000 138.459
63.35000 147.516
63.52000 143.501
63.69000 142.932
63.86000 144.088
64.03000 155.860
64.20000 159.723
64.37000 163.523
64.54000 167.603
64.71000 181.157
64.88000 195.137
65.05000 210.973
65.22000 259.060
65.39000 345.183
65.56000 510.599
65.73000 1565.109
65.90000 2720.157
66.07000 640.507
66.24000 483.417
66.41000 819.912
66.58000 515.174
66.75000 407.585
66.92000 416.277
67.09000 437.664
67.26000 469.190
67.43000 484.320
67.60000 514.174
67.77000 539.171
67.94000 563.895
68.11000 626.760
68.28000 666.202
68.45000 774.307
68.62000 1162.860
68.79000 2182.729
68.96000 15856.593
69.13000 66220.508
69.30000 35138.059
69.47000 7918.893
69.64000 1110.072
69.81000 742.207
69.98000 582.258
70.00000 566.068