Folder: Master-Thesis/XRD/09-10-2025 Dep 8/XY Data (part 4)

File: BTO_Mapping_Theta2Theta_09-10-2025_001_29_-32-361_23-511.xy
20.00000 519.174
20.17000 482.887
20.34000 468.078
20.51000 494.142
20.68000 467.569
20.85000 471.094
21.02000 488.326
21.19000 503.384
21.36000 475.867
21.53000 482.786
21.70000 499.328
21.87000 545.577
22.04000 679.938
22.21000 630.581
22.38000 515.269
22.55000 466.641
22.72000 468.068
22.89000 436.430
23.06000 434.642
23.23000 448.834
23.40000 449.799
23.57000 424.563
23.74000 440.495
23.91000 428.760
24.08000 429.053
24.25000 426.281
24.42000 437.134
24.59000 427.005
24.76000 405.130
24.93000 422.897
25.10000 405.146
25.27000 405.414
25.44000 410.648
25.61000 414.752
25.78000 417.929
25.95000 397.255
26.12000 374.566
26.29000 400.892
26.46000 390.968
26.63000 387.919
26.80000 400.747
26.97000 390.468
27.14000 384.362
27.31000 382.047
27.48000 376.841
27.65000 376.803
27.82000 378.424
27.99000 380.874
28.16000 384.850
28.33000 381.665
28.50000 369.214
28.67000 356.984
28.84000 351.941
29.01000 375.684
29.18000 358.662
29.35000 374.425
29.52000 368.036
29.69000 370.309
29.86000 403.541
30.03000 473.257
30.20000 435.005
30.37000 396.168
30.54000 362.612
30.71000 394.690
30.88000 444.044
31.05000 586.556
31.22000 1522.708
31.39000 3405.087
31.56000 2363.646
31.73000 830.461
31.90000 455.883
32.07000 371.899
32.24000 350.426
32.41000 328.580
32.58000 338.354
32.75000 316.762
32.92000 328.471
33.09000 328.084
33.26000 317.446
33.43000 305.326
33.60000 304.966
33.77000 300.603
33.94000 298.162
34.11000 289.029
34.28000 281.305
34.45000 279.965
34.62000 284.790
34.79000 275.218
34.96000 295.549
35.13000 281.318
35.30000 272.602
35.47000 277.209
35.64000 281.136
35.81000 280.589
35.98000 272.932
36.15000 266.696
36.32000 254.159
36.49000 265.390
36.66000 275.848
36.83000 266.498
37.00000 267.095
37.17000 274.064
37.34000 263.645
37.51000 253.750
37.68000 260.649
37.85000 264.965
38.02000 269.664
38.19000 283.159
38.36000 314.402
38.53000 504.541
38.70000 852.717
38.87000 601.308
39.04000 325.370
39.21000 267.225
39.38000 247.636
39.55000 250.744
39.72000 241.577
39.89000 239.244
40.06000 226.833
40.23000 238.239
40.40000 231.777
40.57000 221.408
40.74000 234.350
40.91000 212.017
41.08000 214.799
41.25000 210.967
41.42000 221.621
41.59000 214.972
41.76000 197.918
41.93000 210.981
42.10000 210.479
42.27000 222.112
42.44000 206.222
42.61000 214.040
42.78000 212.049
42.95000 205.739
43.12000 199.965
43.29000 201.713
43.46000 199.804
43.63000 193.718
43.80000 193.210
43.97000 202.799
44.14000 186.492
44.31000 207.686
44.48000 209.106
44.65000 228.037
44.82000 268.388
44.99000 351.412
45.16000 371.046
45.33000 295.838
45.50000 249.147
45.67000 212.533
45.84000 199.508
46.01000 179.710
46.18000 182.396
46.35000 175.442
46.52000 180.620
46.69000 159.517
46.86000 175.298
47.03000 173.943
47.20000 168.868
47.37000 173.640
47.54000 157.135
47.71000 165.938
47.88000 171.255
48.05000 153.378
48.22000 163.521
48.39000 160.843
48.56000 165.884
48.73000 159.357
48.90000 160.070
49.07000 150.076
49.24000 153.966
49.41000 158.676
49.58000 168.212
49.75000 160.045
49.92000 156.579
50.09000 168.517
50.26000 166.916
50.43000 181.714
50.60000 230.569
50.77000 257.649
50.94000 224.110
51.11000 170.503
51.28000 163.530
51.45000 160.771
51.62000 149.358
51.79000 145.781
51.96000 156.041
52.13000 157.281
52.30000 144.115
52.47000 147.033
52.64000 139.351
52.81000 124.557
52.98000 135.918
53.15000 136.570
53.32000 152.860
53.49000 151.760
53.66000 150.182
53.83000 148.131
54.00000 144.033
54.17000 157.262
54.34000 133.805
54.51000 144.644
54.68000 133.798
54.85000 147.385
55.02000 142.574
55.19000 145.067
55.36000 164.087
55.53000 196.063
55.70000 307.961
55.87000 517.577
56.04000 583.275
56.21000 358.876
56.38000 222.215
56.55000 172.603
56.72000 153.856
56.89000 143.694
57.06000 146.522
57.23000 142.534
57.40000 136.429
57.57000 134.841
57.74000 126.937
57.91000 126.206
58.08000 137.557
58.25000 127.164
58.42000 119.482
58.59000 130.158
58.76000 129.433
58.93000 130.169
59.10000 123.388
59.27000 120.827
59.44000 113.786
59.61000 118.268
59.78000 132.496
59.95000 118.838
60.12000 106.401
60.29000 114.917
60.46000 111.506
60.63000 121.264
60.80000 116.930
60.97000 116.073
61.14000 118.017
61.31000 122.947
61.48000 148.304
61.65000 438.943
61.82000 293.648
61.99000 139.826
62.16000 137.472
62.33000 140.472
62.50000 142.769
62.67000 141.224
62.84000 146.378
63.01000 139.134
63.18000 144.905
63.35000 146.216
63.52000 143.586
63.69000 153.672
63.86000 148.294
64.03000 146.816
64.20000 166.169
64.37000 167.128
64.54000 174.765
64.71000 187.759
64.88000 200.186
65.05000 220.999
65.22000 277.640
65.39000 373.702
65.56000 550.763
65.73000 1703.534
65.90000 3545.974
66.07000 883.783
66.24000 584.116
66.41000 1006.926
66.58000 623.843
66.75000 473.288
66.92000 488.726
67.09000 514.252
67.26000 518.053
67.43000 553.305
67.60000 590.954
67.77000 607.238
67.94000 662.142
68.11000 686.701
68.28000 771.343
68.45000 895.923
68.62000 1321.799
68.79000 2690.113
68.96000 16488.277
69.13000 84932.180
69.30000 49303.461
69.47000 13528.743
69.64000 1390.147
69.81000 835.897
69.98000 642.990
70.00000 620.572

File: BTO_Mapping_Theta2Theta_09-10-2025_001_31_-19-563_4-158.xy
20.00000 502.138
20.17000 474.488
20.34000 487.913
20.51000 482.561
20.68000 479.719
20.85000 476.383
21.02000 496.316
21.19000 465.454
21.36000 443.531
21.53000 502.945
21.70000 505.562
21.87000 604.719
22.04000 703.106
22.21000 641.058
22.38000 529.185
22.55000 471.811
22.72000 439.668
22.89000 461.531
23.06000 452.916
23.23000 448.846
23.40000 447.166
23.57000 435.314
23.74000 434.909
23.91000 419.895
24.08000 415.027
24.25000 417.817
24.42000 433.710
24.59000 409.094
24.76000 408.081
24.93000 418.925
25.10000 415.824
25.27000 423.566
25.44000 405.335
25.61000 405.641
25.78000 394.397
25.95000 398.009
26.12000 387.189
26.29000 404.622
26.46000 407.816
26.63000 394.757
26.80000 388.636
26.97000 392.776
27.14000 383.861
27.31000 361.390
27.48000 378.194
27.65000 383.072
27.82000 370.448
27.99000 377.650
28.16000 376.875
28.33000 374.715
28.50000 368.721
28.67000 352.882
28.84000 376.334
29.01000 367.429
29.18000 364.475
29.35000 362.068
29.52000 359.625
29.69000 378.802
29.86000 402.610
30.03000 443.116
30.20000 439.851
30.37000 416.329
30.54000 414.090
30.71000 415.217
30.88000 451.685
31.05000 626.416
31.22000 1620.142
31.39000 2979.650
31.56000 1779.151
31.73000 663.495
31.90000 420.628
32.07000 364.817
32.24000 355.813
32.41000 344.047
32.58000 328.604
32.75000 334.717
32.92000 332.551
33.09000 311.582
33.26000 309.313
33.43000 303.161
33.60000 302.880
33.77000 292.399
33.94000 301.999
34.11000 297.164
34.28000 293.835
34.45000 276.084
34.62000 288.353
34.79000 284.156
34.96000 278.291
35.13000 279.969
35.30000 274.193
35.47000 273.836
35.64000 267.387
35.81000 274.861
35.98000 260.269
36.15000 277.617
36.32000 261.955
36.49000 264.357
36.66000 275.114
36.83000 264.163
37.00000 281.378
37.17000 283.534
37.34000 270.859
37.51000 263.355
37.68000 264.435
37.85000 272.325
38.02000 280.182
38.19000 284.998
38.36000 344.387
38.53000 586.178
38.70000 867.186
38.87000 596.308
39.04000 345.179
39.21000 285.245
39.38000 256.374
39.55000 249.486
39.72000 248.188
39.89000 227.474
40.06000 231.734
40.23000 223.498
40.40000 229.919
40.57000 237.027
40.74000 231.353
40.91000 218.639
41.08000 222.415
41.25000 221.253
41.42000 223.444
41.59000 213.163
41.76000 210.555
41.93000 213.164
42.10000 214.579
42.27000 211.126
42.44000 204.402
42.61000 201.933
42.78000 198.147
42.95000 216.388
43.12000 204.897
43.29000 204.178
43.46000 217.719
43.63000 200.691
43.80000 183.389
43.97000 201.989
44.14000 200.062
44.31000 210.507
44.48000 216.364
44.65000 226.540
44.82000 325.666
44.99000 415.297
45.16000 382.011
45.33000 310.680
45.50000 252.429
45.67000 234.082
45.84000 205.880
46.01000 199.775
46.18000 184.441
46.35000 184.600
46.52000 177.890
46.69000 190.182
46.86000 174.494
47.03000 181.104
47.20000 167.228
47.37000 165.986
47.54000 166.415
47.71000 165.728
47.88000 169.342
48.05000 164.409
48.22000 156.227
48.39000 170.620
48.56000 150.844
48.73000 171.529
48.90000 164.148
49.07000 158.300
49.24000 158.275
49.41000 166.986
49.58000 163.605
49.75000 157.814
49.92000 148.076
50.09000 161.532
50.26000 162.776
50.43000 189.733
50.60000 237.696
50.77000 229.706
50.94000 211.508
51.11000 175.018
51.28000 155.661
51.45000 161.864
51.62000 153.142
51.79000 153.156
51.96000 152.588
52.13000 145.854
52.30000 141.977
52.47000 135.601
52.64000 149.727
52.81000 144.349
52.98000 140.179
53.15000 143.569
53.32000 155.609
53.49000 160.063
53.66000 165.127
53.83000 148.885
54.00000 146.486
54.17000 146.025
54.34000 145.901
54.51000 154.294
54.68000 148.350
54.85000 144.328
55.02000 145.768
55.19000 157.950
55.36000 173.684
55.53000 202.858
55.70000 343.770
55.87000 547.215
56.04000 520.368
56.21000 339.434
56.38000 221.226
56.55000 171.727
56.72000 155.480
56.89000 136.723
57.06000 138.725
57.23000 133.086
57.40000 123.675
57.57000 125.431
57.74000 127.816
57.91000 125.224
58.08000 125.989
58.25000 127.848
58.42000 122.495
58.59000 119.593
58.76000 127.970
58.93000 124.475
59.10000 122.838
59.27000 126.807
59.44000 118.023
59.61000 129.589
59.78000 132.651
59.95000 119.639
60.12000 111.872
60.29000 128.881
60.46000 109.137
60.63000 119.653
60.80000 122.338
60.97000 125.393
61.14000 116.847
61.31000 136.528
61.48000 160.662
61.65000 441.220
61.82000 257.831
61.99000 134.159
62.16000 137.305
62.33000 135.390
62.50000 138.809
62.67000 130.318
62.84000 134.714
63.01000 139.092
63.18000 142.645
63.35000 148.758
63.52000 150.957
63.69000 144.687
63.86000 158.881
64.03000 159.122
64.20000 154.557
64.37000 162.187
64.54000 177.395
64.71000 185.069
64.88000 199.533
65.05000 233.748
65.22000 266.874
65.39000 367.368
65.56000 535.508
65.73000 1890.544
65.90000 3426.015
66.07000 784.702
66.24000 576.677
66.41000 994.603
66.58000 605.885
66.75000 474.617
66.92000 491.885
67.09000 542.126
67.26000 532.352
67.43000 553.903
67.60000 595.751
67.77000 616.546
67.94000 648.680
68.11000 720.966
68.28000 765.547
68.45000 896.544
68.62000 1375.909
68.79000 2747.760
68.96000 19886.836
69.13000 85359.813
69.30000 45988.547
69.47000 10666.443
69.64000 1336.645
69.81000 836.684
69.98000 642.205
70.00000 625.563

File: BTO_Mapping_Theta2Theta_09-10-2025_001_32_-29-344_6-237.xy
20.00000 503.766
20.17000 476.115
20.34000 473.894
20.51000 489.122
20.68000 454.426
20.85000 491.993
21.02000 478.559
21.19000 481.829
21.36000 487.727
21.53000 475.801
21.70000 526.444
21.87000 605.458
22.04000 695.867
22.21000 606.418
22.38000 520.939
22.55000 478.596
22.72000 459.399
22.89000 439.388
23.06000 438.259
23.23000 432.834
23.40000 438.731
23.57000 431.296
23.74000 437.917
23.91000 428.505
24.08000 413.350
24.25000 410.370
24.42000 419.052
24.59000 409.763
24.76000 411.142
24.93000 414.455
25.10000 414.783
25.27000 399.044
25.44000 398.942
25.61000 402.396
25.78000 403.838
25.95000 404.577
26.12000 385.329
26.29000 385.853
26.46000 400.414
26.63000 384.956
26.80000 395.773
26.97000 383.738
27.14000 402.810
27.31000 381.660
27.48000 363.418
27.65000 384.817
27.82000 383.437
27.99000 390.178
28.16000 392.138
28.33000 371.046
28.50000 363.894
28.67000 373.377
28.84000 365.841
29.01000 361.391
29.18000 365.633
29.35000 366.153
29.52000 375.450
29.69000 370.208
29.86000 421.085
30.03000 463.225
30.20000 452.098
30.37000 386.526
30.54000 409.764
30.71000 434.971
30.88000 438.758
31.05000 668.076
31.22000 2060.984
31.39000 3739.944
31.56000 1997.722
31.73000 703.221
31.90000 413.494
32.07000 373.041
32.24000 345.359
32.41000 348.601
32.58000 344.457
32.75000 324.670
32.92000 324.297
33.09000 322.170
33.26000 322.130
33.43000 310.512
33.60000 302.844
33.77000 290.740
33.94000 295.650
34.11000 291.674
34.28000 301.738
34.45000 289.180
34.62000 276.433
34.79000 274.216
34.96000 268.006
35.13000 274.351
35.30000 276.326
35.47000 289.743
35.64000 267.877
35.81000 279.692
35.98000 268.298
36.15000 272.356
36.32000 261.816
36.49000 260.961
36.66000 264.512
36.83000 274.289
37.00000 285.316
37.17000 274.811
37.34000 272.145
37.51000 259.276
37.68000 270.234
37.85000 287.939
38.02000 272.511
38.19000 283.877
38.36000 337.403
38.53000 557.985
38.70000 755.354
38.87000 499.346
39.04000 306.554
39.21000 261.647
39.38000 261.918
39.55000 237.862
39.72000 235.681
39.89000 246.998
40.06000 243.159
40.23000 231.539
40.40000 236.797
40.57000 232.614
40.74000 242.471
40.91000 219.806
41.08000 229.806
41.25000 214.748
41.42000 220.169
41.59000 218.267
41.76000 210.630
41.93000 221.103
42.10000 208.878
42.27000 204.759
42.44000 205.154
42.61000 205.636
42.78000 212.729
42.95000 216.202
43.12000 222.478
43.29000 207.993
43.46000 204.692
43.63000 219.334
43.80000 207.446
43.97000 210.791
44.14000 216.158
44.31000 200.823
44.48000 227.577
44.65000 256.802
44.82000 334.542
44.99000 410.534
45.16000 374.714
45.33000 277.759
45.50000 243.112
45.67000 218.479
45.84000 204.935
46.01000 198.676
46.18000 187.231
46.35000 176.784
46.52000 191.509
46.69000 182.361
46.86000 179.834
47.03000 190.329
47.20000 166.077
47.37000 178.604
47.54000 157.006
47.71000 180.503
47.88000 160.941
48.05000 154.939
48.22000 163.148
48.39000 177.210
48.56000 165.687
48.73000 158.253
48.90000 154.523
49.07000 162.142
49.24000 160.279
49.41000 153.578
49.58000 162.613
49.75000 152.829
49.92000 166.634
50.09000 156.834
50.26000 168.838
50.43000 190.294
50.60000 247.986
50.77000 240.461
50.94000 193.637
51.11000 175.678
51.28000 176.106
51.45000 154.067
51.62000 151.110
51.79000 142.367
51.96000 149.692
52.13000 146.440
52.30000 145.728
52.47000 148.028
52.64000 139.666
52.81000 149.347
52.98000 145.459
53.15000 155.948
53.32000 150.012
53.49000 154.056
53.66000 141.546
53.83000 143.063
54.00000 141.209
54.17000 134.101
54.34000 137.825
54.51000 151.359
54.68000 141.116
54.85000 143.234
55.02000 145.837
55.19000 157.522
55.36000 172.714
55.53000 225.967
55.70000 364.123
55.87000 535.632
56.04000 488.803
56.21000 305.647
56.38000 201.841
56.55000 163.058
56.72000 149.066
56.89000 135.698
57.06000 122.266
57.23000 139.221
57.40000 135.717
57.57000 124.948
57.74000 133.539
57.91000 125.797
58.08000 123.426
58.25000 123.099
58.42000 133.872
58.59000 114.981
58.76000 120.210
58.93000 123.278
59.10000 111.105
59.27000 122.601
59.44000 112.042
59.61000 118.976
59.78000 117.416
59.95000 104.040
60.12000 119.719
60.29000 113.484
60.46000 125.702
60.63000 118.066
60.80000 119.226
60.97000 123.731
61.14000 124.103
61.31000 127.203
61.48000 147.374
61.65000 416.410
61.82000 262.243
61.99000 137.394
62.16000 134.689
62.33000 139.577
62.50000 133.917
62.67000 135.087
62.84000 142.189
63.01000 138.961
63.18000 140.917
63.35000 151.795
63.52000 146.914
63.69000 144.267
63.86000 161.932
64.03000 164.423
64.20000 162.099
64.37000 164.841
64.54000 168.597
64.71000 189.795
64.88000 206.648
65.05000 217.772
65.22000 304.823
65.39000 411.805
65.56000 594.342
65.73000 1794.946
65.90000 3437.172
66.07000 788.232
66.24000 562.660
66.41000 960.775
66.58000 606.826
66.75000 443.721
66.92000 495.962
67.09000 501.775
67.26000 509.974
67.43000 545.886
67.60000 553.999
67.77000 592.691
67.94000 635.733
68.11000 670.680
68.28000 743.620
68.45000 890.432
68.62000 1315.217
68.79000 2665.525
68.96000 17854.904
69.13000 82767.008
69.30000 45611.883
69.47000 11505.643
69.64000 1343.011
69.81000 820.354
69.98000 636.354
70.00000 625.924

File: BTO_Mapping_Theta2Theta_09-10-2025_001_33_-39-126_8-316.xy
20.00000 498.272
20.17000 494.137
20.34000 482.044
20.51000 466.391
20.68000 484.587
20.85000 480.598
21.02000 479.052
21.19000 484.171
21.36000 485.524
21.53000 492.696
21.70000 507.517
21.87000 608.155
22.04000 650.767
22.21000 589.720
22.38000 516.906
22.55000 472.866
22.72000 461.583
22.89000 448.709
23.06000 450.864
23.23000 442.240
23.40000 436.430
23.57000 443.730
23.74000 440.704
23.91000 440.764
24.08000 416.462
24.25000 427.455
24.42000 430.611
24.59000 427.149
24.76000 398.890
24.93000 420.274
25.10000 412.278
25.27000 404.910
25.44000 407.687
25.61000 395.881
25.78000 404.631
25.95000 404.332
26.12000 404.898
26.29000 396.958
26.46000 396.995
26.63000 402.537
26.80000 387.816
26.97000 381.230
27.14000 363.374
27.31000 389.343
27.48000 392.530
27.65000 375.457
27.82000 380.761
27.99000 381.569
28.16000 393.829
28.33000 387.149
28.50000 387.474
28.67000 389.133
28.84000 375.468
29.01000 363.364
29.18000 368.750
29.35000 372.740
29.52000 360.908
29.69000 400.082
29.86000 485.180
30.03000 573.995
30.20000 504.112
30.37000 420.519
30.54000 433.281
30.71000 435.921
30.88000 475.985
31.05000 894.068
31.22000 3745.577
31.39000 6066.605
31.56000 2583.100
31.73000 777.660
31.90000 449.503
32.07000 397.347
32.24000 364.069
32.41000 338.994
32.58000 363.927
32.75000 342.166
32.92000 321.410
33.09000 333.372
33.26000 314.006
33.43000 301.087
33.60000 301.649
33.77000 298.149
33.94000 292.352
34.11000 292.099
34.28000 293.208
34.45000 286.124
34.62000 295.466
34.79000 281.403
34.96000 291.048
35.13000 269.700
35.30000 276.862
35.47000 265.983
35.64000 272.370
35.81000 271.306
35.98000 276.575
36.15000 263.540
36.32000 261.237
36.49000 268.390
36.66000 263.321
36.83000 286.655
37.00000 285.781
37.17000 278.407
37.34000 265.942
37.51000 261.353
37.68000 269.226
37.85000 276.765
38.02000 257.234
38.19000 278.882
38.36000 343.519
38.53000 486.708
38.70000 573.979
38.87000 396.057
39.04000 299.697
39.21000 247.690
39.38000 242.828
39.55000 245.427
39.72000 257.185
39.89000 240.524
40.06000 230.149
40.23000 230.203
40.40000 225.635
40.57000 223.169
40.74000 237.679
40.91000 217.602
41.08000 214.695
41.25000 215.127
41.42000 215.973
41.59000 213.821
41.76000 210.218
41.93000 212.253
42.10000 201.159
42.27000 217.688
42.44000 193.117
42.61000 210.710
42.78000 199.055
42.95000 207.593
43.12000 210.192
43.29000 224.820
43.46000 197.077
43.63000 202.501
43.80000 207.665
43.97000 207.358
44.14000 193.811
44.31000 207.804
44.48000 224.946
44.65000 270.588
44.82000 349.254
44.99000 384.687
45.16000 338.630
45.33000 268.874
45.50000 243.050
45.67000 215.955
45.84000 203.618
46.01000 198.626
46.18000 192.721
46.35000 184.655
46.52000 177.134
46.69000 159.986
46.86000 188.321
47.03000 172.725
47.20000 174.647
47.37000 169.860
47.54000 168.856
47.71000 170.346
47.88000 169.457
48.05000 159.169
48.22000 165.326
48.39000 174.804
48.56000 166.335
48.73000 158.847
48.90000 165.175
49.07000 164.050
49.24000 158.549
49.41000 158.086
49.58000 158.240
49.75000 158.398
49.92000 160.206
50.09000 180.343
50.26000 173.654
50.43000 219.767
50.60000 254.395
50.77000 252.748
50.94000 188.420
51.11000 171.100
51.28000 152.656
51.45000 154.893
51.62000 157.915
51.79000 156.557
51.96000 147.616
52.13000 143.608
52.30000 143.067
52.47000 143.436
52.64000 156.699
52.81000 139.529
52.98000 155.719
53.15000 155.438
53.32000 149.998
53.49000 152.503
53.66000 147.379
53.83000 149.275
54.00000 140.117
54.17000 146.583
54.34000 145.106
54.51000 142.330
54.68000 142.233
54.85000 140.439
55.02000 150.634
55.19000 167.897
55.36000 169.871
55.53000 262.289
55.70000 425.889
55.87000 496.582
56.04000 386.064
56.21000 258.467
56.38000 198.749
56.55000 158.908
56.72000 139.863
56.89000 128.346
57.06000 130.962
57.23000 134.700
57.40000 122.706
57.57000 135.570
57.74000 124.439
57.91000 132.417
58.08000 126.149
58.25000 125.213
58.42000 130.517
58.59000 123.415
58.76000 136.193
58.93000 117.717
59.10000 116.491
59.27000 122.883
59.44000 120.337
59.61000 123.548
59.78000 123.141
59.95000 124.607
60.12000 117.192
60.29000 121.905
60.46000 114.869
60.63000 120.174
60.80000 126.278
60.97000 122.764
61.14000 128.437
61.31000 124.772
61.48000 152.858
61.65000 430.242
61.82000 296.893
61.99000 139.505
62.16000 138.535
62.33000 141.887
62.50000 139.573
62.67000 141.598
62.84000 148.414
63.01000 148.043
63.18000 148.723
63.35000 149.696
63.52000 141.889
63.69000 145.559
63.86000 156.842
64.03000 152.786
64.20000 155.608
64.37000 187.834
64.54000 179.688
64.71000 184.282
64.88000 210.997
65.05000 254.287
65.22000 389.621
65.39000 593.986
65.56000 726.637
65.73000 1731.249
65.90000 3560.847
66.07000 879.425
66.24000 557.420
66.41000 995.872
66.58000 614.558
66.75000 480.134
66.92000 491.577
67.09000 523.907
67.26000 537.529
67.43000 552.857
67.60000 584.947
67.77000 610.758
67.94000 656.214
68.11000 683.944
68.28000 764.151
68.45000 881.139
68.62000 1271.820
68.79000 2566.183
68.96000 15620.716
69.13000 83734.117
69.30000 48006.668
69.47000 13206.345
69.64000 1401.898
69.81000 852.109
69.98000 638.508
70.00000 649.889

File: BTO_Mapping_Theta2Theta_09-10-2025_001_37_-39-126_-8-316.xy
20.00000 510.866
20.17000 503.070
20.34000 484.991
20.51000 493.503
20.68000 482.560
20.85000 491.996
21.02000 491.970
21.19000 488.268
21.36000 490.041
21.53000 519.463
21.70000 531.416
21.87000 731.623
22.04000 795.330
22.21000 629.628
22.38000 506.232
22.55000 485.336
22.72000 453.360
22.89000 461.385
23.06000 458.847
23.23000 438.112
23.40000 451.608
23.57000 431.137
23.74000 437.421
23.91000 426.325
24.08000 435.679
24.25000 451.477
24.42000 394.254
24.59000 422.392
24.76000 429.459
24.93000 424.505
25.10000 419.594
25.27000 424.683
25.44000 404.067
25.61000 418.607
25.78000 380.493
25.95000 408.455
26.12000 407.357
26.29000 405.218
26.46000 407.398
26.63000 397.241
26.80000 409.050
26.97000 386.440
27.14000 409.282
27.31000 373.894
27.48000 386.923
27.65000 382.495
27.82000 378.691
27.99000 392.737
28.16000 408.285
28.33000 387.970
28.50000 387.555
28.67000 385.827
28.84000 376.559
29.01000 363.446
29.18000 375.198
29.35000 371.235
29.52000 359.460
29.69000 397.773
29.86000 594.829
30.03000 601.216
30.20000 496.357
30.37000 418.383
30.54000 432.376
30.71000 477.944
30.88000 546.291
31.05000 1395.919
31.22000 6360.955
31.39000 6470.767
31.56000 1508.126
31.73000 596.865
31.90000 437.663
32.07000 386.957
32.24000 361.617
32.41000 356.135
32.58000 347.070
32.75000 344.800
32.92000 326.430
33.09000 332.594
33.26000 303.691
33.43000 323.704
33.60000 299.757
33.77000 315.299
33.94000 303.462
34.11000 295.162
34.28000 309.191
34.45000 285.823
34.62000 293.593
34.79000 279.547
34.96000 287.999
35.13000 277.790
35.30000 292.719
35.47000 274.208
35.64000 284.325
35.81000 262.573
35.98000 267.124
36.15000 278.598
36.32000 271.876
36.49000 279.373
36.66000 286.615
36.83000 281.046
37.00000 289.893
37.17000 273.444
37.34000 261.113
37.51000 275.465
37.68000 263.826
37.85000 277.741
38.02000 262.326
38.19000 298.865
38.36000 330.772
38.53000 415.082
38.70000 435.034
38.87000 341.020
39.04000 283.955
39.21000 249.496
39.38000 247.243
39.55000 248.145
39.72000 245.483
39.89000 245.547
40.06000 234.737
40.23000 237.691
40.40000 225.300
40.57000 232.645
40.74000 220.171
40.91000 218.203
41.08000 219.734
41.25000 216.899
41.42000 216.104
41.59000 216.187
41.76000 215.234
41.93000 204.910
42.10000 222.376
42.27000 207.486
42.44000 212.986
42.61000 223.243
42.78000 215.775
42.95000 217.195
43.12000 224.400
43.29000 213.727
43.46000 209.170
43.63000 207.048
43.80000 200.292
43.97000 209.583
44.14000 206.727
44.31000 223.480
44.48000 264.142
44.65000 364.644
44.82000 514.369
44.99000 496.170
45.16000 418.717
45.33000 319.949
45.50000 257.183
45.67000 225.740
45.84000 213.029
46.01000 200.084
46.18000 191.643
46.35000 191.629
46.52000 178.204
46.69000 182.139
46.86000 170.599
47.03000 168.456
47.20000 168.179
47.37000 170.070
47.54000 178.986
47.71000 164.370
47.88000 159.026
48.05000 160.826
48.22000 167.180
48.39000 163.447
48.56000 150.689
48.73000 162.168
48.90000 160.664
49.07000 163.349
49.24000 167.315
49.41000 159.592
49.58000 163.274
49.75000 161.425
49.92000 167.386
50.09000 171.727
50.26000 191.202
50.43000 231.278
50.60000 252.371
50.77000 214.707
50.94000 180.712
51.11000 164.760
51.28000 168.142
51.45000 150.762
51.62000 150.538
51.79000 144.681
51.96000 147.191
52.13000 149.244
52.30000 140.921
52.47000 145.831
52.64000 150.692
52.81000 144.266
52.98000 148.927
53.15000 157.620
53.32000 154.256
53.49000 147.634
53.66000 155.856
53.83000 150.078
54.00000 139.328
54.17000 147.727
54.34000 150.397
54.51000 150.459
54.68000 143.336
54.85000 146.496
55.02000 155.743
55.19000 168.236
55.36000 200.532
55.53000 382.856
55.70000 560.819
55.87000 452.387
56.04000 290.841
56.21000 200.660
56.38000 175.383
56.55000 151.588
56.72000 141.880
56.89000 139.570
57.06000 131.032
57.23000 124.556
57.40000 131.054
57.57000 120.771
57.74000 137.967
57.91000 134.321
58.08000 125.615
58.25000 140.611
58.42000 132.561
58.59000 131.854
58.76000 128.165
58.93000 113.716
59.10000 115.516
59.27000 118.078
59.44000 122.047
59.61000 128.880
59.78000 121.003
59.95000 129.326
60.12000 116.210
60.29000 130.584
60.46000 118.436
60.63000 113.212
60.80000 122.830
60.97000 123.166
61.14000 125.632
61.31000 133.080
61.48000 135.302
61.65000 411.299
61.82000 288.380
61.99000 151.440
62.16000 147.265
62.33000 148.184
62.50000 147.152
62.67000 143.889
62.84000 143.346
63.01000 150.708
63.18000 147.665
63.35000 149.019
63.52000 150.636
63.69000 150.677
63.86000 156.694
64.03000 159.543
64.20000 169.897
64.37000 162.130
64.54000 179.918
64.71000 192.608
64.88000 221.984
65.05000 328.448
65.22000 656.538
65.39000 754.439
65.56000 647.439
65.73000 1602.389
65.90000 3326.395
66.07000 780.600
66.24000 545.149
66.41000 937.360
66.58000 612.138
66.75000 456.037
66.92000 472.116
67.09000 482.289
67.26000 497.233
67.43000 522.565
67.60000 564.114
67.77000 581.870
67.94000 599.288
68.11000 685.269
68.28000 731.855
68.45000 842.519
68.62000 1228.428
68.79000 2476.069
68.96000 14876.359
69.13000 80311.164
69.30000 46199.750
69.47000 12758.250
69.64000 1339.221
69.81000 831.282
69.98000 617.337
70.00000 610.111