Folder: Master-Thesis/XRD/09-10-2025 Dep 8/XY Data

File: BTO_Mapping_Theta2Theta_09-10-2025_001_01_0-000_0-000.xy
20.00000 501.925
20.17000 484.198
20.34000 490.569
20.51000 483.660
20.68000 469.595
20.85000 489.390
21.02000 475.920
21.19000 486.381
21.36000 490.243
21.53000 513.930
21.70000 485.933
21.87000 547.555
22.04000 655.248
22.21000 614.945
22.38000 528.447
22.55000 480.617
22.72000 478.193
22.89000 447.751
23.06000 449.096
23.23000 443.851
23.40000 440.291
23.57000 440.173
23.74000 440.399
23.91000 420.484
24.08000 429.776
24.25000 431.859
24.42000 407.594
24.59000 420.758
24.76000 414.105
24.93000 419.791
25.10000 421.751
25.27000 407.944
25.44000 396.359
25.61000 411.755
25.78000 398.221
25.95000 387.555
26.12000 390.589
26.29000 407.282
26.46000 389.538
26.63000 405.482
26.80000 392.859
26.97000 392.980
27.14000 377.650
27.31000 369.228
27.48000 369.701
27.65000 370.196
27.82000 379.478
27.99000 373.961
28.16000 383.991
28.33000 382.629
28.50000 372.366
28.67000 364.654
28.84000 369.232
29.01000 363.424
29.18000 360.134
29.35000 366.733
29.52000 357.872
29.69000 374.066
29.86000 410.440
30.03000 468.123
30.20000 443.544
30.37000 414.995
30.54000 403.427
30.71000 416.563
30.88000 461.452
31.05000 643.920
31.22000 1660.251
31.39000 3238.567
31.56000 1850.505
31.73000 722.617
31.90000 464.341
32.07000 371.516
32.24000 346.996
32.41000 349.049
32.58000 337.827
32.75000 337.153
32.92000 328.117
33.09000 302.261
33.26000 304.906
33.43000 314.800
33.60000 289.124
33.77000 297.840
33.94000 302.477
34.11000 290.933
34.28000 285.481
34.45000 287.840
34.62000 305.165
34.79000 275.769
34.96000 280.744
35.13000 276.546
35.30000 263.005
35.47000 278.050
35.64000 276.103
35.81000 265.607
35.98000 267.604
36.15000 265.216
36.32000 269.600
36.49000 244.901
36.66000 267.799
36.83000 282.130
37.00000 291.239
37.17000 273.693
37.34000 272.249
37.51000 267.367
37.68000 263.398
37.85000 264.232
38.02000 280.454
38.19000 290.382
38.36000 328.026
38.53000 579.084
38.70000 1074.978
38.87000 722.294
39.04000 335.792
39.21000 260.953
39.38000 253.939
39.55000 247.085
39.72000 225.599
39.89000 235.508
40.06000 237.704
40.23000 224.211
40.40000 221.716
40.57000 237.113
40.74000 211.501
40.91000 203.821
41.08000 206.879
41.25000 213.763
41.42000 210.989
41.59000 206.484
41.76000 219.761
41.93000 225.399
42.10000 209.503
42.27000 197.170
42.44000 204.039
42.61000 213.895
42.78000 204.446
42.95000 200.463
43.12000 199.328
43.29000 208.308
43.46000 185.299
43.63000 201.860
43.80000 195.997
43.97000 189.850
44.14000 184.226
44.31000 191.163
44.48000 199.944
44.65000 218.624
44.82000 254.464
44.99000 313.729
45.16000 345.264
45.33000 321.980
45.50000 257.732
45.67000 216.638
45.84000 210.345
46.01000 187.245
46.18000 190.017
46.35000 183.440
46.52000 182.242
46.69000 166.133
46.86000 184.236
47.03000 174.897
47.20000 171.802
47.37000 162.308
47.54000 159.410
47.71000 166.242
47.88000 151.838
48.05000 164.050
48.22000 176.005
48.39000 164.879
48.56000 152.902
48.73000 156.689
48.90000 159.360
49.07000 153.610
49.24000 144.526
49.41000 159.970
49.58000 145.976
49.75000 149.842
49.92000 167.948
50.09000 145.944
50.26000 168.020
50.43000 167.717
50.60000 214.140
50.77000 230.270
50.94000 224.839
51.11000 176.709
51.28000 156.494
51.45000 150.999
51.62000 142.226
51.79000 147.039
51.96000 147.095
52.13000 138.646
52.30000 143.280
52.47000 143.453
52.64000 151.216
52.81000 133.285
52.98000 128.277
53.15000 137.193
53.32000 151.196
53.49000 151.305
53.66000 146.402
53.83000 150.338
54.00000 147.187
54.17000 138.700
54.34000 142.016
54.51000 131.958
54.68000 133.503
54.85000 146.545
55.02000 134.559
55.19000 145.029
55.36000 156.657
55.53000 185.559
55.70000 260.019
55.87000 472.881
56.04000 558.057
56.21000 350.393
56.38000 222.339
56.55000 173.060
56.72000 152.286
56.89000 136.628
57.06000 142.516
57.23000 132.855
57.40000 118.448
57.57000 128.285
57.74000 121.813
57.91000 127.263
58.08000 119.788
58.25000 124.435
58.42000 120.231
58.59000 114.912
58.76000 123.525
58.93000 126.843
59.10000 124.588
59.27000 116.639
59.44000 114.076
59.61000 124.153
59.78000 118.484
59.95000 111.241
60.12000 121.198
60.29000 113.975
60.46000 127.236
60.63000 122.279
60.80000 127.843
60.97000 117.518
61.14000 121.779
61.31000 125.706
61.48000 144.496
61.65000 361.722
61.82000 201.877
61.99000 131.671
62.16000 132.705
62.33000 137.107
62.50000 134.341
62.67000 136.082
62.84000 143.096
63.01000 138.063
63.18000 134.085
63.35000 138.709
63.52000 141.560
63.69000 148.775
63.86000 143.411
64.03000 148.874
64.20000 162.841
64.37000 163.726
64.54000 173.273
64.71000 183.861
64.88000 193.131
65.05000 215.845
65.22000 244.140
65.39000 337.061
65.56000 525.373
65.73000 1584.873
65.90000 2594.954
66.07000 599.940
66.24000 494.526
66.41000 778.674
66.58000 496.735
66.75000 415.985
66.92000 432.093
67.09000 434.105
67.26000 462.774
67.43000 494.562
67.60000 490.033
67.77000 522.535
67.94000 574.282
68.11000 616.717
68.28000 642.577
68.45000 778.961
68.62000 1154.252
68.79000 2236.955
68.96000 16777.305
69.13000 64722.816
69.30000 33865.934
69.47000 7007.340
69.64000 1102.835
69.81000 703.396
69.98000 588.379
70.00000 575.029

File: BTO_Mapping_Theta2Theta_09-10-2025_001_04_30-000_0-000.xy
20.00000 496.427
20.17000 497.260
20.34000 488.498
20.51000 485.910
20.68000 482.586
20.85000 485.561
21.02000 479.879
21.19000 448.481
21.36000 468.423
21.53000 477.830
21.70000 466.425
21.87000 504.499
22.04000 580.732
22.21000 591.646
22.38000 523.021
22.55000 475.611
22.72000 462.919
22.89000 447.011
23.06000 447.851
23.23000 455.979
23.40000 438.030
23.57000 440.945
23.74000 455.094
23.91000 462.482
24.08000 455.180
24.25000 455.079
24.42000 415.431
24.59000 437.793
24.76000 411.745
24.93000 406.817
25.10000 401.670
25.27000 400.655
25.44000 409.410
25.61000 411.155
25.78000 409.518
25.95000 396.396
26.12000 395.386
26.29000 407.947
26.46000 397.675
26.63000 412.409
26.80000 390.801
26.97000 376.035
27.14000 371.427
27.31000 380.499
27.48000 371.283
27.65000 380.936
27.82000 366.821
27.99000 357.815
28.16000 366.409
28.33000 364.802
28.50000 360.103
28.67000 347.176
28.84000 343.648
29.01000 354.188
29.18000 350.050
29.35000 350.292
29.52000 355.383
29.69000 352.079
29.86000 370.891
30.03000 407.484
30.20000 405.943
30.37000 391.570
30.54000 393.365
30.71000 383.905
30.88000 419.156
31.05000 483.030
31.22000 949.047
31.39000 1999.917
31.56000 1625.902
31.73000 692.868
31.90000 446.749
32.07000 353.908
32.24000 339.707
32.41000 322.256
32.58000 314.628
32.75000 318.070
32.92000 317.362
33.09000 297.324
33.26000 303.572
33.43000 299.496
33.60000 293.085
33.77000 287.125
33.94000 288.658
34.11000 278.997
34.28000 299.329
34.45000 287.811
34.62000 280.914
34.79000 279.381
34.96000 292.166
35.13000 273.003
35.30000 271.897
35.47000 271.062
35.64000 273.679
35.81000 258.929
35.98000 266.521
36.15000 277.111
36.32000 258.975
36.49000 259.777
36.66000 269.892
36.83000 260.768
37.00000 280.923
37.17000 273.055
37.34000 253.173
37.51000 241.405
37.68000 253.371
37.85000 254.824
38.02000 260.692
38.19000 259.914
38.36000 286.280
38.53000 388.505
38.70000 870.511
38.87000 833.218
39.04000 363.316
39.21000 251.349
39.38000 239.510
39.55000 228.611
39.72000 228.024
39.89000 228.374
40.06000 231.742
40.23000 224.154
40.40000 217.265
40.57000 226.516
40.74000 213.878
40.91000 207.169
41.08000 221.824
41.25000 217.798
41.42000 221.363
41.59000 199.140
41.76000 208.358
41.93000 209.059
42.10000 185.600
42.27000 196.929
42.44000 208.518
42.61000 225.154
42.78000 205.918
42.95000 206.792
43.12000 207.223
43.29000 207.046
43.46000 198.087
43.63000 185.324
43.80000 198.960
43.97000 201.022
44.14000 186.943
44.31000 195.775
44.48000 204.403
44.65000 205.368
44.82000 216.497
44.99000 248.603
45.16000 271.099
45.33000 273.230
45.50000 249.722
45.67000 219.141
45.84000 216.335
46.01000 196.395
46.18000 189.865
46.35000 193.013
46.52000 177.133
46.69000 177.898
46.86000 169.347
47.03000 174.899
47.20000 164.224
47.37000 170.779
47.54000 165.075
47.71000 173.215
47.88000 153.496
48.05000 164.757
48.22000 149.709
48.39000 161.634
48.56000 163.372
48.73000 150.475
48.90000 161.328
49.07000 158.526
49.24000 159.041
49.41000 158.338
49.58000 162.533
49.75000 163.666
49.92000 142.324
50.09000 162.429
50.26000 154.909
50.43000 154.860
50.60000 191.748
50.77000 217.419
50.94000 207.565
51.11000 164.589
51.28000 161.631
51.45000 156.246
51.62000 142.538
51.79000 146.804
51.96000 140.181
52.13000 147.065
52.30000 149.487
52.47000 137.377
52.64000 138.639
52.81000 139.481
52.98000 139.706
53.15000 140.330
53.32000 147.651
53.49000 152.237
53.66000 146.061
53.83000 149.701
54.00000 147.930
54.17000 131.657
54.34000 133.842
54.51000 135.856
54.68000 140.978
54.85000 134.658
55.02000 136.495
55.19000 137.082
55.36000 148.259
55.53000 162.948
55.70000 201.964
55.87000 387.677
56.04000 586.527
56.21000 432.074
56.38000 239.666
56.55000 177.770
56.72000 146.314
56.89000 141.929
57.06000 128.288
57.23000 128.513
57.40000 126.126
57.57000 122.130
57.74000 118.151
57.91000 130.531
58.08000 120.685
58.25000 121.003
58.42000 111.289
58.59000 118.452
58.76000 117.254
58.93000 122.476
59.10000 118.292
59.27000 115.734
59.44000 120.004
59.61000 128.907
59.78000 121.961
59.95000 120.400
60.12000 118.442
60.29000 118.656
60.46000 113.008
60.63000 116.998
60.80000 122.287
60.97000 124.402
61.14000 125.956
61.31000 127.274
61.48000 130.529
61.65000 308.553
61.82000 192.901
61.99000 142.019
62.16000 135.838
62.33000 134.275
62.50000 139.279
62.67000 132.422
62.84000 138.962
63.01000 135.827
63.18000 134.318
63.35000 142.341
63.52000 139.190
63.69000 143.281
63.86000 145.191
64.03000 140.314
64.20000 161.345
64.37000 153.865
64.54000 155.727
64.71000 162.053
64.88000 179.188
65.05000 197.068
65.22000 211.360
65.39000 274.278
65.56000 384.484
65.73000 1182.340
65.90000 2046.821
66.07000 518.272
66.24000 411.324
66.41000 653.505
66.58000 410.940
66.75000 362.599
66.92000 365.869
67.09000 387.659
67.26000 399.980
67.43000 424.153
67.60000 440.724
67.77000 461.255
67.94000 514.207
68.11000 542.879
68.28000 609.191
68.45000 693.803
68.62000 983.346
68.79000 1798.198
68.96000 11687.724
69.13000 49136.992
69.30000 26061.139
69.47000 5907.108
69.64000 983.328
69.81000 652.452
69.98000 530.879
70.00000 521.472

File: BTO_Mapping_Theta2Theta_09-10-2025_001_05_40-000_0-000.xy
20.00000 484.286
20.17000 496.871
20.34000 466.015
20.51000 487.160
20.68000 471.811
20.85000 473.392
21.02000 481.940
21.19000 483.763
21.36000 467.770
21.53000 469.122
21.70000 481.975
21.87000 517.817
22.04000 558.658
22.21000 565.767
22.38000 516.832
22.55000 483.865
22.72000 438.008
22.89000 456.678
23.06000 474.256
23.23000 430.818
23.40000 434.032
23.57000 439.578
23.74000 446.468
23.91000 469.622
24.08000 466.240
24.25000 445.376
24.42000 432.643
24.59000 416.973
24.76000 418.969
24.93000 427.925
25.10000 411.864
25.27000 408.835
25.44000 404.767
25.61000 393.882
25.78000 387.210
25.95000 399.377
26.12000 379.281
26.29000 383.508
26.46000 398.480
26.63000 378.388
26.80000 388.086
26.97000 375.138
27.14000 393.452
27.31000 385.152
27.48000 376.127
27.65000 366.663
27.82000 362.896
27.99000 369.590
28.16000 385.323
28.33000 367.407
28.50000 361.163
28.67000 374.370
28.84000 348.957
29.01000 361.838
29.18000 367.930
29.35000 364.015
29.52000 352.135
29.69000 363.207
29.86000 367.681
30.03000 412.901
30.20000 395.366
30.37000 388.213
30.54000 367.143
30.71000 379.971
30.88000 391.841
31.05000 462.052
31.22000 808.227
31.39000 1593.048
31.56000 1411.261
31.73000 667.130
31.90000 435.865
32.07000 354.844
32.24000 347.348
32.41000 336.986
32.58000 320.354
32.75000 323.858
32.92000 306.675
33.09000 300.582
33.26000 287.111
33.43000 289.282
33.60000 292.125
33.77000 287.319
33.94000 290.303
34.11000 289.611
34.28000 288.448
34.45000 285.391
34.62000 293.755
34.79000 287.907
34.96000 270.243
35.13000 275.951
35.30000 268.057
35.47000 272.782
35.64000 268.304
35.81000 260.412
35.98000 269.024
36.15000 267.082
36.32000 255.747
36.49000 264.076
36.66000 258.870
36.83000 257.685
37.00000 280.239
37.17000 274.448
37.34000 264.211
37.51000 264.995
37.68000 248.849
37.85000 249.375
38.02000 257.538
38.19000 270.228
38.36000 262.249
38.53000 360.287
38.70000 793.996
38.87000 847.179
39.04000 386.998
39.21000 285.591
39.38000 246.137
39.55000 252.228
39.72000 236.026
39.89000 224.336
40.06000 227.142
40.23000 225.833
40.40000 219.187
40.57000 216.080
40.74000 211.006
40.91000 196.360
41.08000 224.482
41.25000 212.413
41.42000 214.710
41.59000 205.789
41.76000 205.141
41.93000 210.502
42.10000 212.633
42.27000 223.213
42.44000 203.817
42.61000 197.731
42.78000 202.684
42.95000 208.404
43.12000 193.482
43.29000 203.474
43.46000 190.961
43.63000 189.149
43.80000 199.439
43.97000 195.513
44.14000 197.315
44.31000 203.320
44.48000 194.355
44.65000 205.868
44.82000 211.877
44.99000 250.123
45.16000 250.078
45.33000 254.894
45.50000 232.800
45.67000 227.677
45.84000 214.646
46.01000 187.481
46.18000 193.896
46.35000 191.019
46.52000 171.627
46.69000 188.906
46.86000 167.350
47.03000 175.544
47.20000 163.274
47.37000 165.368
47.54000 159.008
47.71000 161.781
47.88000 172.788
48.05000 153.341
48.22000 150.024
48.39000 167.440
48.56000 168.788
48.73000 159.659
48.90000 163.143
49.07000 160.796
49.24000 162.644
49.41000 151.758
49.58000 159.631
49.75000 153.190
49.92000 152.089
50.09000 148.019
50.26000 163.597
50.43000 156.116
50.60000 181.584
50.77000 195.631
50.94000 187.538
51.11000 173.565
51.28000 169.704
51.45000 149.383
51.62000 143.479
51.79000 141.280
51.96000 135.517
52.13000 139.911
52.30000 136.988
52.47000 145.079
52.64000 142.067
52.81000 125.806
52.98000 140.125
53.15000 135.585
53.32000 150.083
53.49000 151.447
53.66000 146.214
53.83000 136.608
54.00000 136.672
54.17000 147.349
54.34000 135.781
54.51000 132.758
54.68000 136.199
54.85000 150.730
55.02000 137.145
55.19000 148.736
55.36000 150.876
55.53000 161.832
55.70000 233.357
55.87000 364.393
56.04000 559.385
56.21000 489.436
56.38000 274.689
56.55000 173.200
56.72000 146.680
56.89000 135.082
57.06000 133.433
57.23000 133.124
57.40000 129.027
57.57000 126.937
57.74000 130.887
57.91000 125.271
58.08000 123.642
58.25000 138.347
58.42000 129.141
58.59000 125.078
58.76000 126.973
58.93000 119.930
59.10000 115.934
59.27000 116.846
59.44000 116.469
59.61000 115.061
59.78000 117.265
59.95000 113.871
60.12000 118.271
60.29000 113.836
60.46000 116.579
60.63000 122.465
60.80000 117.906
60.97000 119.151
61.14000 120.994
61.31000 124.502
61.48000 131.478
61.65000 298.821
61.82000 199.673
61.99000 132.067
62.16000 117.682
62.33000 126.755
62.50000 133.497
62.67000 133.028
62.84000 125.558
63.01000 148.428
63.18000 130.991
63.35000 146.202
63.52000 136.706
63.69000 143.586
63.86000 147.558
64.03000 146.666
64.20000 155.042
64.37000 157.162
64.54000 164.681
64.71000 160.880
64.88000 168.853
65.05000 195.188
65.22000 212.436
65.39000 258.905
65.56000 351.710
65.73000 1090.032
65.90000 1993.652
66.07000 523.897
66.24000 407.485
66.41000 623.239
66.58000 420.747
66.75000 373.642
66.92000 370.897
67.09000 398.074
67.26000 404.207
67.43000 439.777
67.60000 429.867
67.77000 491.742
67.94000 500.544
68.11000 542.518
68.28000 598.421
68.45000 670.984
68.62000 963.009
68.79000 1693.365
68.96000 10587.410
69.13000 47395.027
69.30000 25376.795
69.47000 5918.619
69.64000 974.155
69.81000 658.498
69.98000 524.479
70.00000 508.359

File: BTO_Mapping_Theta2Theta_09-10-2025_001_06_9-135_4-067.xy
20.00000 497.464
20.17000 489.400
20.34000 464.631
20.51000 455.675
20.68000 474.955
20.85000 484.549
21.02000 476.304
21.19000 467.787
21.36000 484.776
21.53000 484.288
21.70000 484.890
21.87000 503.306
22.04000 582.506
22.21000 603.429
22.38000 525.790
22.55000 482.514
22.72000 466.052
22.89000 440.757
23.06000 449.909
23.23000 435.192
23.40000 427.104
23.57000 415.812
23.74000 442.644
23.91000 432.790
24.08000 426.279
24.25000 427.072
24.42000 429.265
24.59000 413.033
24.76000 411.176
24.93000 423.179
25.10000 408.107
25.27000 411.150
25.44000 402.743
25.61000 389.181
25.78000 395.275
25.95000 397.551
26.12000 394.360
26.29000 402.473
26.46000 385.647
26.63000 388.923
26.80000 393.963
26.97000 370.024
27.14000 383.455
27.31000 376.129
27.48000 385.549
27.65000 373.915
27.82000 383.432
27.99000 370.409
28.16000 373.253
28.33000 375.184
28.50000 382.759
28.67000 378.239
28.84000 365.534
29.01000 357.335
29.18000 362.232
29.35000 355.259
29.52000 356.148
29.69000 373.317
29.86000 408.464
30.03000 459.087
30.20000 450.725
30.37000 402.811
30.54000 403.780
30.71000 418.711
30.88000 441.617
31.05000 584.171
31.22000 1461.999
31.39000 3110.000
31.56000 1963.544
31.73000 726.327
31.90000 439.581
32.07000 374.693
32.24000 360.119
32.41000 345.867
32.58000 335.649
32.75000 319.856
32.92000 299.067
33.09000 309.452
33.26000 293.780
33.43000 298.034
33.60000 306.265
33.77000 295.991
33.94000 293.775
34.11000 294.485
34.28000 281.117
34.45000 291.177
34.62000 279.362
34.79000 282.561
34.96000 276.079
35.13000 276.928
35.30000 278.741
35.47000 268.842
35.64000 273.997
35.81000 268.786
35.98000 265.005
36.15000 255.243
36.32000 253.952
36.49000 257.564
36.66000 267.246
36.83000 273.163
37.00000 276.905
37.17000 273.739
37.34000 261.485
37.51000 267.163
37.68000 251.733
37.85000 265.201
38.02000 265.179
38.19000 276.578
38.36000 297.837
38.53000 509.454
38.70000 1022.457
38.87000 807.855
39.04000 357.132
39.21000 273.184
39.38000 243.517
39.55000 223.956
39.72000 234.871
39.89000 233.907
40.06000 223.654
40.23000 229.191
40.40000 232.047
40.57000 221.802
40.74000 213.675
40.91000 209.234
41.08000 227.742
41.25000 215.760
41.42000 219.469
41.59000 208.545
41.76000 204.524
41.93000 215.422
42.10000 204.650
42.27000 216.975
42.44000 204.500
42.61000 205.326
42.78000 205.200
42.95000 196.693
43.12000 203.352
43.29000 196.709
43.46000 206.272
43.63000 212.713
43.80000 204.060
43.97000 196.284
44.14000 198.947
44.31000 186.317
44.48000 195.891
44.65000 205.422
44.82000 224.600
44.99000 264.616
45.16000 303.304
45.33000 291.589
45.50000 265.259
45.67000 229.879
45.84000 210.532
46.01000 198.110
46.18000 185.389
46.35000 187.535
46.52000 193.435
46.69000 181.835
46.86000 173.000
47.03000 186.660
47.20000 173.907
47.37000 161.085
47.54000 168.565
47.71000 165.642
47.88000 156.548
48.05000 163.104
48.22000 159.637
48.39000 158.048
48.56000 160.370
48.73000 154.923
48.90000 155.949
49.07000 156.741
49.24000 169.603
49.41000 152.928
49.58000 159.845
49.75000 166.529
49.92000 142.228
50.09000 151.250
50.26000 148.223
50.43000 171.941
50.60000 198.508
50.77000 239.555
50.94000 205.552
51.11000 176.808
51.28000 166.194
51.45000 154.346
51.62000 146.524
51.79000 145.153
51.96000 148.583
52.13000 143.752
52.30000 137.600
52.47000 144.710
52.64000 137.069
52.81000 141.748
52.98000 140.370
53.15000 146.449
53.32000 142.376
53.49000 151.914
53.66000 152.547
53.83000 146.202
54.00000 131.156
54.17000 142.868
54.34000 140.855
54.51000 136.800
54.68000 137.352
54.85000 143.126
55.02000 147.284
55.19000 148.435
55.36000 148.894
55.53000 176.374
55.70000 235.900
55.87000 428.133
56.04000 544.465
56.21000 365.329
56.38000 220.439
56.55000 174.699
56.72000 145.197
56.89000 142.019
57.06000 132.908
57.23000 127.129
57.40000 129.667
57.57000 121.597
57.74000 126.767
57.91000 124.045
58.08000 125.533
58.25000 127.868
58.42000 116.322
58.59000 133.287
58.76000 128.816
58.93000 124.015
59.10000 114.724
59.27000 117.317
59.44000 126.137
59.61000 128.821
59.78000 107.329
59.95000 126.301
60.12000 110.339
60.29000 112.414
60.46000 114.086
60.63000 122.682
60.80000 123.181
60.97000 111.290
61.14000 117.089
61.31000 125.885
61.48000 140.903
61.65000 330.788
61.82000 194.027
61.99000 133.848
62.16000 126.639
62.33000 139.567
62.50000 133.839
62.67000 133.369
62.84000 125.259
63.01000 141.902
63.18000 132.354
63.35000 137.031
63.52000 137.372
63.69000 147.104
63.86000 144.849
64.03000 160.596
64.20000 156.826
64.37000 160.584
64.54000 174.687
64.71000 174.569
64.88000 174.956
65.05000 212.520
65.22000 234.558
65.39000 329.754
65.56000 476.965
65.73000 1364.865
65.90000 2336.729
66.07000 536.479
66.24000 456.642
66.41000 737.815
66.58000 452.406
66.75000 382.157
66.92000 388.228
67.09000 407.886
67.26000 414.772
67.43000 435.323
67.60000 477.724
67.77000 488.050
67.94000 512.778
68.11000 563.196
68.28000 627.471
68.45000 730.272
68.62000 1058.831
68.79000 1927.324
68.96000 13175.892
69.13000 55411.098
69.30000 29152.816
69.47000 6438.932
69.64000 1023.911
69.81000 658.845
69.98000 541.661
70.00000 549.586

File: BTO_Mapping_Theta2Theta_09-10-2025_001_13_26-765_29-726.xy
20.00000 482.644
20.17000 479.177
20.34000 480.844
20.51000 462.203
20.68000 482.211
20.85000 469.596
21.02000 479.574
21.19000 471.272
21.36000 450.017
21.53000 460.841
21.70000 462.138
21.87000 525.730
22.04000 565.617
22.21000 577.780
22.38000 534.202
22.55000 486.874
22.72000 451.811
22.89000 468.157
23.06000 456.316
23.23000 437.691
23.40000 462.334
23.57000 440.436
23.74000 444.336
23.91000 470.764
24.08000 454.882
24.25000 452.569
24.42000 417.791
24.59000 421.389
24.76000 411.376
24.93000 420.063
25.10000 413.098
25.27000 389.448
25.44000 412.039
25.61000 385.859
25.78000 385.700
25.95000 411.106
26.12000 383.523
26.29000 384.188
26.46000 391.528
26.63000 375.241
26.80000 388.120
26.97000 383.959
27.14000 367.640
27.31000 363.853
27.48000 358.191
27.65000 378.975
27.82000 358.512
27.99000 379.413
28.16000 380.433
28.33000 364.367
28.50000 356.877
28.67000 368.211
28.84000 366.074
29.01000 356.318
29.18000 354.741
29.35000 356.408
29.52000 352.928
29.69000 347.366
29.86000 367.535
30.03000 399.398
30.20000 374.314
30.37000 379.389
30.54000 374.309
30.71000 388.079
30.88000 395.696
31.05000 456.583
31.22000 758.444
31.39000 1521.477
31.56000 1377.752
31.73000 690.426
31.90000 427.619
32.07000 379.804
32.24000 332.144
32.41000 324.445
32.58000 333.750
32.75000 329.160
32.92000 309.589
33.09000 301.992
33.26000 292.022
33.43000 284.444
33.60000 303.043
33.77000 288.739
33.94000 284.943
34.11000 304.190
34.28000 295.030
34.45000 282.274
34.62000 278.980
34.79000 274.553
34.96000 273.517
35.13000 271.584
35.30000 271.014
35.47000 261.176
35.64000 253.658
35.81000 273.083
35.98000 266.686
36.15000 272.787
36.32000 271.178
36.49000 262.006
36.66000 269.111
36.83000 255.666
37.00000 270.035
37.17000 289.966
37.34000 259.832
37.51000 262.431
37.68000 252.289
37.85000 267.411
38.02000 259.187
38.19000 268.095
38.36000 269.707
38.53000 376.295
38.70000 806.251
38.87000 890.399
39.04000 410.602
39.21000 250.969
39.38000 259.617
39.55000 234.769
39.72000 227.943
39.89000 222.005
40.06000 228.743
40.23000 233.846
40.40000 225.756
40.57000 210.314
40.74000 220.623
40.91000 202.978
41.08000 205.033
41.25000 214.715
41.42000 214.856
41.59000 207.995
41.76000 212.284
41.93000 206.332
42.10000 203.881
42.27000 211.144
42.44000 206.769
42.61000 207.446
42.78000 209.188
42.95000 198.698
43.12000 197.936
43.29000 196.294
43.46000 202.639
43.63000 207.913
43.80000 201.080
43.97000 198.568
44.14000 195.656
44.31000 198.360
44.48000 185.460
44.65000 209.659
44.82000 217.228
44.99000 239.476
45.16000 260.617
45.33000 258.538
45.50000 243.983
45.67000 211.861
45.84000 195.760
46.01000 195.771
46.18000 184.634
46.35000 183.048
46.52000 184.424
46.69000 176.720
46.86000 167.022
47.03000 175.880
47.20000 170.066
47.37000 172.891
47.54000 169.121
47.71000 162.345
47.88000 161.793
48.05000 159.267
48.22000 154.262
48.39000 151.142
48.56000 146.857
48.73000 151.774
48.90000 154.784
49.07000 165.322
49.24000 153.993
49.41000 151.735
49.58000 147.710
49.75000 154.420
49.92000 154.527
50.09000 152.056
50.26000 157.795
50.43000 158.463
50.60000 171.790
50.77000 200.200
50.94000 183.276
51.11000 164.469
51.28000 148.399
51.45000 138.275
51.62000 136.037
51.79000 144.758
51.96000 133.842
52.13000 142.626
52.30000 142.507
52.47000 131.624
52.64000 143.005
52.81000 142.364
52.98000 134.795
53.15000 131.502
53.32000 153.675
53.49000 153.805
53.66000 152.958
53.83000 139.230
54.00000 134.621
54.17000 135.475
54.34000 132.849
54.51000 137.497
54.68000 140.228
54.85000 135.084
55.02000 147.236
55.19000 145.865
55.36000 147.490
55.53000 160.388
55.70000 206.284
55.87000 363.847
56.04000 597.476
56.21000 472.809
56.38000 271.178
56.55000 182.824
56.72000 151.098
56.89000 138.998
57.06000 123.933
57.23000 126.563
57.40000 125.952
57.57000 127.882
57.74000 131.616
57.91000 118.317
58.08000 124.487
58.25000 126.416
58.42000 122.614
58.59000 119.996
58.76000 123.078
58.93000 124.782
59.10000 128.303
59.27000 121.591
59.44000 122.677
59.61000 127.138
59.78000 123.543
59.95000 116.161
60.12000 104.901
60.29000 118.370
60.46000 115.179
60.63000 118.394
60.80000 119.751
60.97000 122.572
61.14000 126.459
61.31000 125.288
61.48000 131.142
61.65000 289.919
61.82000 194.665
61.99000 128.341
62.16000 135.983
62.33000 131.872
62.50000 136.169
62.67000 131.386
62.84000 123.033
63.01000 135.490
63.18000 142.489
63.35000 133.736
63.52000 140.100
63.69000 132.883
63.86000 140.262
64.03000 142.074
64.20000 143.519
64.37000 155.440
64.54000 154.140
64.71000 172.438
64.88000 177.732
65.05000 182.754
65.22000 213.414
65.39000 249.378
65.56000 364.479
65.73000 1049.241
65.90000 1989.380
66.07000 537.650
66.24000 407.435
66.41000 635.792
66.58000 422.862
66.75000 353.511
66.92000 362.634
67.09000 382.960
67.26000 395.762
67.43000 416.391
67.60000 435.221
67.77000 477.039
67.94000 495.969
68.11000 539.307
68.28000 601.616
68.45000 675.711
68.62000 985.250
68.79000 1757.907
68.96000 10031.381
69.13000 47499.254
69.30000 26147.582
69.47000 6453.461
69.64000 994.941
69.81000 648.160
69.98000 519.010
70.00000 502.918