Folder: Master-Thesis/XRD/09-10-2025 Dep 8/XY Data (part 6)

File: BTO_Mapping_Theta2Theta_09-10-2025_001_53_12-361_-38-042.xy
20.00000 480.497
20.17000 484.643
20.34000 474.115
20.51000 483.474
20.68000 490.924
20.85000 480.944
21.02000 484.221
21.19000 483.681
21.36000 485.744
21.53000 482.778
21.70000 475.947
21.87000 528.813
22.04000 602.594
22.21000 610.447
22.38000 522.131
22.55000 484.936
22.72000 456.465
22.89000 432.525
23.06000 437.342
23.23000 438.117
23.40000 450.809
23.57000 452.119
23.74000 419.129
23.91000 437.308
24.08000 444.363
24.25000 430.361
24.42000 425.144
24.59000 393.087
24.76000 417.133
24.93000 398.008
25.10000 424.014
25.27000 413.115
25.44000 410.373
25.61000 402.590
25.78000 415.917
25.95000 403.373
26.12000 391.964
26.29000 409.909
26.46000 378.906
26.63000 380.984
26.80000 391.943
26.97000 372.972
27.14000 395.131
27.31000 379.567
27.48000 373.219
27.65000 395.007
27.82000 369.557
27.99000 380.805
28.16000 375.603
28.33000 372.834
28.50000 395.168
28.67000 369.328
28.84000 342.275
29.01000 365.055
29.18000 356.784
29.35000 360.840
29.52000 368.266
29.69000 353.153
29.86000 381.590
30.03000 444.995
30.20000 437.835
30.37000 411.723
30.54000 431.832
30.71000 412.076
30.88000 427.384
31.05000 573.062
31.22000 1286.776
31.39000 2962.551
31.56000 2174.096
31.73000 841.761
31.90000 493.840
32.07000 383.782
32.24000 361.143
32.41000 343.487
32.58000 325.311
32.75000 324.218
32.92000 321.501
33.09000 319.449
33.26000 295.202
33.43000 284.907
33.60000 296.258
33.77000 283.805
33.94000 303.547
34.11000 276.608
34.28000 292.911
34.45000 291.084
34.62000 286.489
34.79000 282.351
34.96000 271.901
35.13000 276.228
35.30000 272.789
35.47000 266.428
35.64000 272.854
35.81000 270.566
35.98000 271.089
36.15000 266.134
36.32000 265.996
36.49000 276.931
36.66000 266.934
36.83000 268.140
37.00000 287.037
37.17000 286.252
37.34000 257.712
37.51000 259.762
37.68000 245.897
37.85000 251.344
38.02000 244.513
38.19000 279.976
38.36000 302.586
38.53000 480.667
38.70000 1012.264
38.87000 869.147
39.04000 377.126
39.21000 285.862
39.38000 248.800
39.55000 241.035
39.72000 233.663
39.89000 229.254
40.06000 237.305
40.23000 225.388
40.40000 225.906
40.57000 217.053
40.74000 243.045
40.91000 217.021
41.08000 204.245
41.25000 212.015
41.42000 210.818
41.59000 218.329
41.76000 223.158
41.93000 206.617
42.10000 206.828
42.27000 203.445
42.44000 206.689
42.61000 193.386
42.78000 198.090
42.95000 199.210
43.12000 202.505
43.29000 207.589
43.46000 206.948
43.63000 204.080
43.80000 194.947
43.97000 204.101
44.14000 206.616
44.31000 200.800
44.48000 196.542
44.65000 202.376
44.82000 222.750
44.99000 271.656
45.16000 322.976
45.33000 301.856
45.50000 253.659
45.67000 231.278
45.84000 208.868
46.01000 199.799
46.18000 183.616
46.35000 193.812
46.52000 183.389
46.69000 170.708
46.86000 166.999
47.03000 169.754
47.20000 170.142
47.37000 163.424
47.54000 158.448
47.71000 171.488
47.88000 169.996
48.05000 148.782
48.22000 159.199
48.39000 160.234
48.56000 153.399
48.73000 151.838
48.90000 157.230
49.07000 162.008
49.24000 154.360
49.41000 151.819
49.58000 170.662
49.75000 146.012
49.92000 160.002
50.09000 147.859
50.26000 154.846
50.43000 161.192
50.60000 195.345
50.77000 250.259
50.94000 224.105
51.11000 180.493
51.28000 157.630
51.45000 156.595
51.62000 148.223
51.79000 148.898
51.96000 143.223
52.13000 137.049
52.30000 149.670
52.47000 137.380
52.64000 134.050
52.81000 147.178
52.98000 130.982
53.15000 147.490
53.32000 150.789
53.49000 151.749
53.66000 141.173
53.83000 139.501
54.00000 144.159
54.17000 149.717
54.34000 135.844
54.51000 137.004
54.68000 145.954
54.85000 130.151
55.02000 137.027
55.19000 140.949
55.36000 156.515
55.53000 156.863
55.70000 241.896
55.87000 434.389
56.04000 559.173
56.21000 404.227
56.38000 244.852
56.55000 169.358
56.72000 150.865
56.89000 143.328
57.06000 133.846
57.23000 128.176
57.40000 125.815
57.57000 129.413
57.74000 122.619
57.91000 127.414
58.08000 124.831
58.25000 122.271
58.42000 117.482
58.59000 114.251
58.76000 123.677
58.93000 107.809
59.10000 115.898
59.27000 112.210
59.44000 123.250
59.61000 116.775
59.78000 126.757
59.95000 126.194
60.12000 114.136
60.29000 112.824
60.46000 127.092
60.63000 123.714
60.80000 120.813
60.97000 114.231
61.14000 119.323
61.31000 125.438
61.48000 127.630
61.65000 337.063
61.82000 229.133
61.99000 136.475
62.16000 131.401
62.33000 134.607
62.50000 132.961
62.67000 134.252
62.84000 121.614
63.01000 136.792
63.18000 140.766
63.35000 133.534
63.52000 138.822
63.69000 142.022
63.86000 150.359
64.03000 148.967
64.20000 157.505
64.37000 157.826
64.54000 177.594
64.71000 167.541
64.88000 179.747
65.05000 203.329
65.22000 242.483
65.39000 311.440
65.56000 466.399
65.73000 1357.971
65.90000 2610.465
66.07000 656.586
66.24000 456.414
66.41000 776.079
66.58000 500.495
66.75000 394.262
66.92000 409.362
67.09000 440.188
67.26000 428.702
67.43000 466.007
67.60000 496.778
67.77000 522.050
67.94000 561.203
68.11000 588.682
68.28000 637.370
68.45000 753.496
68.62000 1078.110
68.79000 2085.485
68.96000 12093.618
69.13000 61349.148
69.30000 34242.379
69.47000 8769.122
69.64000 1145.224
69.81000 712.295
69.98000 567.877
70.00000 562.201

File: BTO_Mapping_Theta2Theta_09-10-2025_001_56_20-074_-22-294.xy
20.00000 495.129
20.17000 472.276
20.34000 458.190
20.51000 483.337
20.68000 465.862
20.85000 473.051
21.02000 478.815
21.19000 472.530
21.36000 470.595
21.53000 490.839
21.70000 476.375
21.87000 521.018
22.04000 587.976
22.21000 583.335
22.38000 521.522
22.55000 498.247
22.72000 448.875
22.89000 454.714
23.06000 463.303
23.23000 440.605
23.40000 423.227
23.57000 431.938
23.74000 426.150
23.91000 435.301
24.08000 434.580
24.25000 419.035
24.42000 443.872
24.59000 402.307
24.76000 431.775
24.93000 423.468
25.10000 410.105
25.27000 399.233
25.44000 390.354
25.61000 405.905
25.78000 418.829
25.95000 420.639
26.12000 384.539
26.29000 395.733
26.46000 402.353
26.63000 384.952
26.80000 383.724
26.97000 384.587
27.14000 388.514
27.31000 383.259
27.48000 381.788
27.65000 380.522
27.82000 366.798
27.99000 368.142
28.16000 370.956
28.33000 394.550
28.50000 366.796
28.67000 371.893
28.84000 355.158
29.01000 350.195
29.18000 361.158
29.35000 364.148
29.52000 364.350
29.69000 362.672
29.86000 404.924
30.03000 448.957
30.20000 425.202
30.37000 413.057
30.54000 385.306
30.71000 393.900
30.88000 434.961
31.05000 545.152
31.22000 1260.291
31.39000 2754.295
31.56000 1926.291
31.73000 784.798
31.90000 441.209
32.07000 402.970
32.24000 349.205
32.41000 338.473
32.58000 328.874
32.75000 321.309
32.92000 322.954
33.09000 294.185
33.26000 306.406
33.43000 297.173
33.60000 313.687
33.77000 309.718
33.94000 304.407
34.11000 286.626
34.28000 292.721
34.45000 279.678
34.62000 290.665
34.79000 281.252
34.96000 269.941
35.13000 279.618
35.30000 272.074
35.47000 278.857
35.64000 277.068
35.81000 261.181
35.98000 256.866
36.15000 253.262
36.32000 254.686
36.49000 259.911
36.66000 261.710
36.83000 280.532
37.00000 295.193
37.17000 289.914
37.34000 273.970
37.51000 257.730
37.68000 259.864
37.85000 270.860
38.02000 275.775
38.19000 285.097
38.36000 315.330
38.53000 484.487
38.70000 1091.754
38.87000 941.920
39.04000 397.810
39.21000 257.794
39.38000 246.465
39.55000 246.157
39.72000 232.385
39.89000 221.772
40.06000 231.049
40.23000 228.416
40.40000 236.150
40.57000 220.578
40.74000 218.553
40.91000 223.906
41.08000 213.652
41.25000 207.863
41.42000 218.392
41.59000 205.708
41.76000 206.468
41.93000 209.546
42.10000 208.052
42.27000 222.686
42.44000 196.548
42.61000 210.233
42.78000 203.170
42.95000 199.476
43.12000 203.499
43.29000 203.931
43.46000 203.420
43.63000 196.893
43.80000 194.575
43.97000 187.895
44.14000 193.269
44.31000 188.038
44.48000 187.332
44.65000 197.833
44.82000 223.065
44.99000 268.910
45.16000 273.583
45.33000 279.308
45.50000 248.060
45.67000 234.376
45.84000 212.734
46.01000 190.631
46.18000 185.720
46.35000 184.515
46.52000 177.887
46.69000 174.329
46.86000 188.737
47.03000 177.297
47.20000 175.040
47.37000 174.202
47.54000 171.696
47.71000 170.094
47.88000 166.242
48.05000 169.377
48.22000 160.037
48.39000 174.478
48.56000 169.107
48.73000 169.255
48.90000 169.207
49.07000 158.204
49.24000 159.636
49.41000 146.429
49.58000 155.063
49.75000 158.733
49.92000 144.320
50.09000 160.886
50.26000 159.316
50.43000 157.634
50.60000 191.759
50.77000 216.075
50.94000 214.975
51.11000 173.525
51.28000 168.727
51.45000 157.216
51.62000 147.203
51.79000 149.690
51.96000 146.805
52.13000 139.210
52.30000 135.950
52.47000 145.419
52.64000 140.060
52.81000 142.465
52.98000 146.064
53.15000 150.310
53.32000 138.746
53.49000 142.999
53.66000 135.926
53.83000 141.231
54.00000 146.575
54.17000 135.297
54.34000 129.334
54.51000 136.021
54.68000 137.814
54.85000 138.173
55.02000 133.459
55.19000 149.636
55.36000 151.064
55.53000 163.237
55.70000 223.123
55.87000 409.832
56.04000 544.772
56.21000 394.350
56.38000 250.219
56.55000 170.049
56.72000 147.491
56.89000 141.204
57.06000 128.585
57.23000 125.951
57.40000 137.265
57.57000 115.404
57.74000 131.197
57.91000 127.171
58.08000 115.063
58.25000 118.443
58.42000 120.619
58.59000 115.701
58.76000 120.153
58.93000 115.367
59.10000 117.778
59.27000 118.354
59.44000 117.622
59.61000 126.704
59.78000 127.084
59.95000 107.556
60.12000 122.664
60.29000 117.225
60.46000 114.202
60.63000 114.510
60.80000 124.779
60.97000 117.447
61.14000 129.062
61.31000 126.985
61.48000 128.425
61.65000 312.458
61.82000 211.827
61.99000 130.638
62.16000 135.716
62.33000 133.883
62.50000 133.844
62.67000 133.368
62.84000 140.330
63.01000 146.605
63.18000 139.986
63.35000 131.096
63.52000 139.084
63.69000 139.308
63.86000 144.968
64.03000 147.411
64.20000 153.302
64.37000 159.181
64.54000 178.587
64.71000 159.279
64.88000 184.435
65.05000 200.983
65.22000 222.286
65.39000 302.024
65.56000 445.382
65.73000 1277.575
65.90000 2358.269
66.07000 602.728
66.24000 448.586
66.41000 732.419
66.58000 441.733
66.75000 394.449
66.92000 399.860
67.09000 429.158
67.26000 425.675
67.43000 459.813
67.60000 473.108
67.77000 493.816
67.94000 524.142
68.11000 565.383
68.28000 616.556
68.45000 714.974
68.62000 1050.523
68.79000 1920.135
68.96000 12065.951
69.13000 55293.863
69.30000 29898.457
69.47000 7105.428
69.64000 1084.135
69.81000 682.206
69.98000 547.014
70.00000 527.812

File: BTO_Mapping_Theta2Theta_09-10-2025_001_58_9-135_-4-067.xy
20.00000 484.076
20.17000 498.018
20.34000 484.765
20.51000 479.117
20.68000 488.866
20.85000 464.320
21.02000 480.748
21.19000 464.568
21.36000 473.183
21.53000 476.368
21.70000 460.935
21.87000 538.574
22.04000 591.315
22.21000 601.916
22.38000 543.360
22.55000 480.145
22.72000 458.281
22.89000 442.487
23.06000 451.419
23.23000 460.656
23.40000 436.624
23.57000 444.314
23.74000 433.853
23.91000 422.550
24.08000 433.241
24.25000 429.524
24.42000 426.381
24.59000 404.912
24.76000 417.382
24.93000 424.758
25.10000 427.233
25.27000 412.056
25.44000 407.653
25.61000 403.866
25.78000 412.326
25.95000 417.845
26.12000 385.372
26.29000 397.902
26.46000 402.313
26.63000 391.234
26.80000 382.040
26.97000 395.565
27.14000 387.926
27.31000 394.420
27.48000 394.879
27.65000 375.544
27.82000 352.196
27.99000 381.807
28.16000 378.417
28.33000 379.913
28.50000 383.871
28.67000 365.436
28.84000 361.445
29.01000 362.901
29.18000 359.958
29.35000 385.294
29.52000 365.109
29.69000 367.689
29.86000 406.205
30.03000 463.682
30.20000 477.280
30.37000 395.595
30.54000 396.912
30.71000 414.448
30.88000 467.565
31.05000 621.856
31.22000 1532.749
31.39000 3132.366
31.56000 1986.675
31.73000 718.303
31.90000 445.430
32.07000 393.693
32.24000 341.391
32.41000 335.176
32.58000 341.859
32.75000 329.089
32.92000 320.612
33.09000 300.886
33.26000 298.608
33.43000 299.355
33.60000 306.447
33.77000 300.702
33.94000 293.048
34.11000 293.968
34.28000 280.183
34.45000 282.119
34.62000 283.434
34.79000 282.956
34.96000 270.034
35.13000 280.829
35.30000 280.961
35.47000 266.061
35.64000 260.218
35.81000 263.493
35.98000 263.084
36.15000 263.427
36.32000 269.820
36.49000 274.518
36.66000 268.413
36.83000 256.681
37.00000 286.679
37.17000 279.844
37.34000 258.680
37.51000 258.238
37.68000 263.904
37.85000 251.630
38.02000 275.827
38.19000 267.591
38.36000 319.552
38.53000 528.917
38.70000 1089.563
38.87000 817.951
39.04000 360.349
39.21000 271.603
39.38000 253.256
39.55000 242.802
39.72000 229.497
39.89000 241.305
40.06000 234.448
40.23000 220.771
40.40000 221.813
40.57000 231.876
40.74000 229.530
40.91000 229.932
41.08000 214.004
41.25000 215.582
41.42000 218.381
41.59000 206.111
41.76000 206.476
41.93000 213.626
42.10000 208.777
42.27000 215.131
42.44000 199.384
42.61000 198.603
42.78000 218.873
42.95000 203.434
43.12000 208.468
43.29000 211.712
43.46000 205.497
43.63000 207.162
43.80000 197.994
43.97000 201.857
44.14000 194.132
44.31000 195.243
44.48000 202.385
44.65000 193.693
44.82000 225.044
44.99000 269.370
45.16000 333.399
45.33000 299.873
45.50000 255.142
45.67000 220.950
45.84000 218.475
46.01000 190.635
46.18000 198.899
46.35000 175.483
46.52000 178.556
46.69000 168.008
46.86000 165.331
47.03000 182.010
47.20000 165.114
47.37000 167.264
47.54000 170.325
47.71000 165.768
47.88000 162.586
48.05000 166.079
48.22000 160.018
48.39000 167.002
48.56000 174.044
48.73000 153.317
48.90000 165.660
49.07000 159.304
49.24000 157.549
49.41000 162.186
49.58000 159.340
49.75000 163.452
49.92000 150.467
50.09000 154.028
50.26000 157.200
50.43000 164.786
50.60000 202.606
50.77000 236.210
50.94000 205.007
51.11000 179.144
51.28000 158.733
51.45000 161.571
51.62000 154.071
51.79000 150.093
51.96000 142.275
52.13000 140.733
52.30000 140.570
52.47000 137.729
52.64000 152.340
52.81000 153.247
52.98000 139.663
53.15000 136.744
53.32000 149.082
53.49000 149.191
53.66000 142.919
53.83000 142.782
54.00000 139.863
54.17000 130.881
54.34000 146.115
54.51000 135.530
54.68000 140.646
54.85000 138.097
55.02000 146.554
55.19000 152.882
55.36000 157.025
55.53000 180.043
55.70000 248.198
55.87000 443.397
56.04000 559.586
56.21000 354.566
56.38000 221.879
56.55000 170.293
56.72000 152.802
56.89000 140.556
57.06000 120.440
57.23000 134.134
57.40000 142.094
57.57000 117.353
57.74000 126.166
57.91000 131.312
58.08000 127.973
58.25000 124.984
58.42000 127.750
58.59000 129.816
58.76000 123.075
58.93000 127.676
59.10000 116.254
59.27000 125.686
59.44000 116.300
59.61000 119.994
59.78000 126.348
59.95000 115.158
60.12000 123.011
60.29000 119.978
60.46000 105.863
60.63000 116.209
60.80000 114.774
60.97000 119.314
61.14000 122.100
61.31000 124.771
61.48000 141.525
61.65000 313.237
61.82000 215.000
61.99000 139.383
62.16000 135.572
62.33000 130.208
62.50000 140.968
62.67000 133.246
62.84000 145.845
63.01000 139.915
63.18000 128.220
63.35000 136.754
63.52000 145.449
63.69000 141.687
63.86000 159.520
64.03000 150.138
64.20000 155.842
64.37000 159.835
64.54000 181.443
64.71000 169.263
64.88000 179.543
65.05000 206.773
65.22000 237.270
65.39000 331.229
65.56000 490.606
65.73000 1392.983
65.90000 2392.090
66.07000 584.563
66.24000 469.842
66.41000 739.693
66.58000 447.365
66.75000 399.800
66.92000 388.414
67.09000 416.171
67.26000 445.680
67.43000 479.804
67.60000 477.817
67.77000 505.385
67.94000 547.496
68.11000 594.666
68.28000 645.575
68.45000 736.053
68.62000 1060.185
68.79000 1990.769
68.96000 13245.793
69.13000 57336.465
69.30000 30753.766
69.47000 6935.125
69.64000 1068.962
69.81000 678.480
69.98000 557.264
70.00000 546.023

File: BTO_Mapping_Theta2Theta_09-10-2025_001_60_27-406_-12-202.xy
20.00000 484.247
20.17000 460.880
20.34000 483.106
20.51000 475.804
20.68000 478.330
20.85000 466.144
21.02000 481.721
21.19000 480.792
21.36000 496.100
21.53000 475.229
21.70000 483.325
21.87000 516.025
22.04000 571.029
22.21000 579.158
22.38000 530.778
22.55000 466.782
22.72000 426.904
22.89000 451.408
23.06000 451.553
23.23000 418.603
23.40000 417.621
23.57000 431.507
23.74000 446.662
23.91000 457.594
24.08000 423.521
24.25000 434.015
24.42000 397.013
24.59000 410.164
24.76000 442.466
24.93000 430.029
25.10000 418.381
25.27000 409.234
25.44000 397.172
25.61000 407.623
25.78000 410.399
25.95000 402.609
26.12000 397.759
26.29000 404.238
26.46000 393.405
26.63000 394.656
26.80000 403.405
26.97000 394.087
27.14000 388.976
27.31000 377.737
27.48000 373.391
27.65000 389.736
27.82000 383.705
27.99000 363.447
28.16000 381.903
28.33000 378.781
28.50000 381.923
28.67000 364.776
28.84000 373.070
29.01000 356.320
29.18000 351.119
29.35000 365.230
29.52000 351.553
29.69000 352.576
29.86000 386.781
30.03000 429.211
30.20000 392.523
30.37000 396.804
30.54000 385.813
30.71000 398.741
30.88000 419.861
31.05000 504.629
31.22000 1078.084
31.39000 2211.813
31.56000 1685.111
31.73000 724.178
31.90000 453.116
32.07000 384.926
32.24000 346.886
32.41000 350.469
32.58000 318.420
32.75000 307.329
32.92000 324.456
33.09000 314.116
33.26000 282.636
33.43000 298.886
33.60000 283.010
33.77000 300.446
33.94000 287.246
34.11000 296.317
34.28000 300.074
34.45000 292.961
34.62000 289.403
34.79000 266.232
34.96000 276.470
35.13000 279.720
35.30000 276.062
35.47000 270.859
35.64000 259.876
35.81000 263.092
35.98000 263.221
36.15000 268.866
36.32000 267.093
36.49000 265.393
36.66000 267.496
36.83000 269.576
37.00000 273.565
37.17000 277.700
37.34000 258.274
37.51000 258.295
37.68000 252.076
37.85000 266.921
38.02000 249.289
38.19000 277.661
38.36000 292.819
38.53000 459.405
38.70000 971.398
38.87000 924.424
39.04000 377.374
39.21000 253.171
39.38000 253.905
39.55000 239.388
39.72000 237.283
39.89000 223.588
40.06000 231.066
40.23000 227.373
40.40000 229.194
40.57000 226.679
40.74000 229.462
40.91000 215.371
41.08000 216.529
41.25000 213.241
41.42000 225.251
41.59000 215.394
41.76000 196.955
41.93000 208.414
42.10000 213.293
42.27000 214.918
42.44000 208.647
42.61000 199.434
42.78000 202.377
42.95000 201.147
43.12000 206.400
43.29000 208.961
43.46000 200.717
43.63000 192.536
43.80000 199.715
43.97000 195.869
44.14000 200.083
44.31000 200.916
44.48000 191.199
44.65000 198.319
44.82000 230.289
44.99000 234.772
45.16000 286.147
45.33000 275.578
45.50000 239.981
45.67000 233.497
45.84000 216.381
46.01000 196.270
46.18000 182.137
46.35000 169.357
46.52000 168.262
46.69000 161.620
46.86000 174.923
47.03000 172.952
47.20000 159.739
47.37000 162.194
47.54000 178.962
47.71000 165.870
47.88000 168.756
48.05000 154.389
48.22000 155.823
48.39000 160.783
48.56000 162.345
48.73000 160.527
48.90000 164.993
49.07000 155.293
49.24000 150.756
49.41000 159.707
49.58000 150.714
49.75000 142.581
49.92000 156.611
50.09000 150.515
50.26000 160.699
50.43000 169.074
50.60000 187.325
50.77000 221.286
50.94000 200.965
51.11000 160.042
51.28000 152.742
51.45000 136.338
51.62000 144.345
51.79000 137.670
51.96000 144.549
52.13000 146.533
52.30000 133.767
52.47000 141.187
52.64000 146.243
52.81000 146.600
52.98000 140.986
53.15000 153.628
53.32000 148.641
53.49000 140.719
53.66000 141.022
53.83000 143.802
54.00000 152.102
54.17000 135.021
54.34000 133.157
54.51000 131.274
54.68000 129.539
54.85000 134.392
55.02000 144.819
55.19000 144.233
55.36000 142.203
55.53000 160.487
55.70000 215.188
55.87000 407.658
56.04000 577.328
56.21000 403.691
56.38000 248.326
56.55000 181.362
56.72000 141.512
56.89000 146.917
57.06000 141.821
57.23000 139.075
57.40000 127.011
57.57000 132.234
57.74000 122.291
57.91000 125.733
58.08000 117.904
58.25000 122.520
58.42000 119.249
58.59000 119.712
58.76000 123.519
58.93000 108.249
59.10000 121.439
59.27000 119.978
59.44000 114.336
59.61000 128.352
59.78000 116.249
59.95000 122.663
60.12000 122.587
60.29000 116.247
60.46000 121.461
60.63000 109.837
60.80000 120.215
60.97000 120.947
61.14000 121.599
61.31000 120.558
61.48000 137.330
61.65000 305.727
61.82000 211.239
61.99000 131.718
62.16000 127.595
62.33000 134.883
62.50000 134.706
62.67000 142.127
62.84000 132.840
63.01000 135.421
63.18000 144.140
63.35000 149.489
63.52000 135.650
63.69000 143.760
63.86000 137.639
64.03000 150.786
64.20000 160.543
64.37000 146.619
64.54000 164.983
64.71000 179.603
64.88000 179.491
65.05000 199.822
65.22000 216.463
65.39000 288.895
65.56000 414.545
65.73000 1265.687
65.90000 2157.665
66.07000 573.620
66.24000 455.954
66.41000 694.120
66.58000 434.408
66.75000 388.781
66.92000 375.797
67.09000 399.347
67.26000 420.755
67.43000 470.341
67.60000 465.259
67.77000 491.096
67.94000 529.749
68.11000 551.802
68.28000 624.962
68.45000 719.507
68.62000 1026.071
68.79000 1871.884
68.96000 12005.975
69.13000 53038.508
69.30000 28614.914
69.47000 6600.750
69.64000 1039.973
69.81000 661.627
69.98000 544.743
70.00000 533.138

File: BTO_Mapping_Theta2Theta_09-10-2025_001_61_36-542_-16-269.xy
20.00000 485.234
20.17000 475.403
20.34000 475.822
20.51000 480.688
20.68000 477.344
20.85000 488.904
21.02000 460.371
21.19000 463.105
21.36000 472.547
21.53000 482.173
21.70000 479.997
21.87000 503.606
22.04000 567.004
22.21000 556.807
22.38000 520.236
22.55000 471.828
22.72000 465.496
22.89000 438.747
23.06000 456.285
23.23000 457.466
23.40000 443.685
23.57000 438.851
23.74000 435.914
23.91000 462.482
24.08000 462.342
24.25000 454.481
24.42000 410.900
24.59000 412.288
24.76000 413.063
24.93000 402.643
25.10000 396.305
25.27000 397.502
25.44000 396.637
25.61000 397.536
25.78000 394.138
25.95000 401.745
26.12000 394.887
26.29000 397.349
26.46000 396.004
26.63000 383.960
26.80000 388.538
26.97000 396.108
27.14000 376.419
27.31000 385.816
27.48000 372.825
27.65000 372.052
27.82000 377.424
27.99000 353.530
28.16000 357.704
28.33000 364.504
28.50000 359.350
28.67000 362.402
28.84000 365.017
29.01000 370.698
29.18000 355.669
29.35000 350.802
29.52000 347.359
29.69000 361.285
29.86000 378.087
30.03000 380.919
30.20000 395.845
30.37000 394.781
30.54000 362.276
30.71000 380.784
30.88000 393.487
31.05000 462.419
31.22000 825.887
31.39000 1669.526
31.56000 1436.087
31.73000 667.522
31.90000 417.424
32.07000 352.905
32.24000 319.433
32.41000 324.315
32.58000 325.695
32.75000 314.161
32.92000 323.547
33.09000 309.530
33.26000 299.586
33.43000 294.474
33.60000 297.430
33.77000 295.155
33.94000 286.473
34.11000 294.991
34.28000 296.738
34.45000 288.349
34.62000 274.807
34.79000 276.055
34.96000 269.478
35.13000 261.830
35.30000 277.653
35.47000 265.284
35.64000 261.981
35.81000 259.962
35.98000 250.135
36.15000 253.066
36.32000 250.297
36.49000 278.636
36.66000 254.557
36.83000 258.743
37.00000 282.969
37.17000 289.615
37.34000 262.529
37.51000 258.327
37.68000 251.528
37.85000 249.821
38.02000 262.048
38.19000 267.687
38.36000 281.113
38.53000 402.979
38.70000 916.827
38.87000 937.490
39.04000 412.084
39.21000 282.742
39.38000 247.907
39.55000 224.718
39.72000 225.027
39.89000 235.419
40.06000 224.969
40.23000 228.515
40.40000 215.300
40.57000 225.749
40.74000 210.695
40.91000 214.453
41.08000 215.200
41.25000 223.015
41.42000 215.177
41.59000 214.665
41.76000 210.142
41.93000 213.030
42.10000 210.662
42.27000 212.602
42.44000 208.363
42.61000 209.493
42.78000 204.958
42.95000 204.086
43.12000 189.057
43.29000 194.836
43.46000 197.537
43.63000 193.399
43.80000 191.709
43.97000 191.395
44.14000 197.809
44.31000 186.040
44.48000 194.516
44.65000 210.349
44.82000 202.922
44.99000 233.158
45.16000 260.528
45.33000 251.053
45.50000 241.549
45.67000 218.599
45.84000 201.348
46.01000 188.937
46.18000 192.189
46.35000 178.748
46.52000 169.632
46.69000 157.520
46.86000 166.221
47.03000 184.092
47.20000 179.597
47.37000 168.945
47.54000 162.223
47.71000 165.546
47.88000 149.696
48.05000 152.736
48.22000 157.987
48.39000 179.225
48.56000 147.686
48.73000 162.651
48.90000 158.361
49.07000 162.891
49.24000 150.581
49.41000 163.726
49.58000 151.683
49.75000 155.416
49.92000 154.245
50.09000 156.359
50.26000 147.192
50.43000 156.090
50.60000 180.599
50.77000 206.352
50.94000 191.722
51.11000 167.170
51.28000 163.874
51.45000 139.997
51.62000 155.549
51.79000 140.715
51.96000 144.639
52.13000 140.778
52.30000 137.564
52.47000 127.642
52.64000 138.825
52.81000 154.202
52.98000 138.797
53.15000 135.406
53.32000 156.188
53.49000 156.811
53.66000 147.597
53.83000 139.691
54.00000 122.143
54.17000 144.327
54.34000 135.341
54.51000 139.516
54.68000 134.188
54.85000 135.513
55.02000 139.680
55.19000 152.321
55.36000 144.831
55.53000 165.623
55.70000 220.646
55.87000 389.784
56.04000 586.793
56.21000 474.117
56.38000 271.584
56.55000 175.539
56.72000 151.103
56.89000 128.137
57.06000 130.268
57.23000 135.072
57.40000 124.581
57.57000 120.048
57.74000 123.602
57.91000 122.831
58.08000 125.616
58.25000 113.670
58.42000 131.003
58.59000 129.807
58.76000 126.311
58.93000 122.779
59.10000 114.915
59.27000 113.822
59.44000 119.077
59.61000 116.420
59.78000 119.086
59.95000 127.001
60.12000 117.628
60.29000 121.298
60.46000 120.984
60.63000 108.797
60.80000 122.524
60.97000 122.301
61.14000 118.934
61.31000 124.366
61.48000 128.508
61.65000 292.684
61.82000 192.162
61.99000 127.812
62.16000 132.252
62.33000 124.681
62.50000 130.088
62.67000 136.332
62.84000 122.557
63.01000 132.105
63.18000 137.529
63.35000 138.637
63.52000 134.912
63.69000 133.001
63.86000 145.666
64.03000 156.076
64.20000 152.298
64.37000 157.793
64.54000 165.716
64.71000 154.443
64.88000 187.252
65.05000 185.624
65.22000 212.246
65.39000 266.037
65.56000 352.575
65.73000 1094.890
65.90000 2002.357
66.07000 510.201
66.24000 407.944
66.41000 663.297
66.58000 428.741
66.75000 349.094
66.92000 360.513
67.09000 379.382
67.26000 389.035
67.43000 405.153
67.60000 469.041
67.77000 475.729
67.94000 497.541
68.11000 523.524
68.28000 616.615
68.45000 678.117
68.62000 960.734
68.79000 1756.033
68.96000 10545.064
69.13000 48010.297
69.30000 26168.420
69.47000 6287.310
69.64000 987.483
69.81000 647.645
69.98000 525.029
70.00000 513.249