Folder: Master-Thesis/XRD/Grazing Incidence/XY Data

File: Dilan_Full_Stack_Training_3_grazing_incidience_Map_001_1_0-000_0-000.xy
30.00000 22.627
30.06000 23.006
30.12000 15.638
30.18000 17.862
30.24000 20.981
30.30000 12.785
30.36000 17.936
30.42000 13.687
30.48000 19.584
30.54000 21.982
30.60000 20.901
30.66000 18.295
30.72000 22.057
30.78000 20.163
30.84000 24.433
30.90000 42.067
30.96000 39.714
31.02000 63.247
31.08000 79.653
31.14000 125.197
31.20000 210.813
31.26000 359.743
31.32000 513.820
31.38000 729.889
31.44000 760.608
31.50000 706.237
31.56000 546.019
31.62000 358.173
31.68000 224.522
31.74000 109.104
31.80000 71.326
31.86000 30.348
31.92000 25.364
31.98000 28.582
32.04000 17.439
32.10000 23.324
32.16000 10.604
32.22000 17.647
32.28000 10.786
32.34000 13.593
32.40000 13.548
32.46000 16.328
32.52000 8.147
32.58000 9.288
32.64000 11.218
32.70000 7.548
32.76000 5.635
32.82000 7.380
32.88000 10.130
32.94000 13.043
33.00000 8.073
33.06000 9.132
33.12000 16.634
33.18000 6.404
33.24000 15.143
33.30000 8.562
33.36000 10.151
33.42000 7.103
33.48000 8.042
33.54000 4.008
33.60000 7.008
33.66000 8.088
33.72000 14.422
33.78000 4.343
33.84000 5.863
33.90000 3.998
33.96000 11.129
34.02000 6.031
34.08000 9.530
34.14000 7.369
34.20000 6.491
34.26000 11.220
34.32000 11.088
34.38000 9.146
34.44000 7.033
34.50000 5.076
34.56000 8.144
34.62000 2.415
34.68000 12.512
34.74000 5.128
34.80000 9.026
34.86000 8.463
34.92000 2.017
34.98000 5.338
35.04000 5.013
35.10000 5.134
35.16000 5.085
35.22000 4.091
35.28000 9.043
35.34000 8.568
35.40000 4.306
35.46000 10.180
35.52000 6.191
35.58000 4.099
35.64000 5.462
35.70000 4.948
35.76000 9.197
35.82000 5.354
35.88000 5.515
35.94000 6.114
36.00000 9.088
36.06000 7.428
36.12000 5.129
36.18000 3.022
36.24000 4.791
36.30000 4.060
36.36000 2.028
36.42000 4.091
36.48000 10.231
36.54000 10.211
36.60000 10.082
36.66000 6.059
36.72000 4.015
36.78000 7.230
36.84000 5.019
36.90000 10.103
36.96000 7.174
37.02000 7.094
37.08000 3.088
37.14000 6.256
37.20000 9.179
37.26000 9.037
37.32000 4.144
37.38000 7.104
37.44000 10.614
37.50000 5.106
37.56000 5.211
37.62000 4.428
37.68000 7.044
37.74000 4.709
37.80000 10.107
37.86000 8.175
37.92000 4.034
37.98000 9.496
38.04000 3.415
38.10000 8.407
38.16000 9.638
38.22000 8.514
38.28000 6.866
38.34000 11.185
38.40000 9.176
38.46000 11.958
38.52000 28.763
38.58000 40.381
38.64000 46.871
38.70000 58.461
38.76000 67.690
38.82000 76.982
38.88000 65.352
38.94000 41.149
39.00000 33.572
39.06000 23.455
39.12000 10.759
39.18000 9.152
39.24000 5.077
39.30000 8.496
39.36000 4.793
39.42000 5.086
39.48000 4.102
39.54000 6.061
39.60000 7.460
39.66000 3.090
39.72000 5.097
39.78000 12.431
39.84000 6.357
39.90000 2.055
39.96000 4.358
40.02000 8.134
40.08000 3.062
40.14000 11.450
40.20000 3.020
40.26000 3.064
40.32000 5.424
40.38000 6.043
40.44000 10.227
40.50000 7.120
40.56000 3.083
40.62000 2.363
40.68000 6.051
40.74000 5.534
40.80000 4.632
40.86000 4.367
40.92000 3.385
40.98000 7.053
41.04000 7.121
41.10000 5.042
41.16000 5.044
41.22000 1.990
41.28000 2.011
41.34000 3.050
41.40000 1.029
41.46000 6.045
41.52000 3.012
41.58000 5.399
41.64000 4.021
41.70000 3.645
41.76000 3.113
41.82000 6.134
41.88000 6.069
41.94000 5.106
42.00000 2.045
42.06000 5.022
42.12000 11.162
42.18000 7.054
42.24000 6.208
42.30000 6.522
42.36000 2.043
42.42000 4.117
42.48000 3.014
42.54000 11.349
42.60000 5.357
42.66000 8.670
42.72000 1.326
42.78000 3.009
42.84000 6.220
42.90000 5.423
42.96000 3.045
43.02000 4.093
43.08000 7.123
43.14000 8.059
43.20000 3.986
43.26000 9.119
43.32000 4.072
43.38000 3.113
43.44000 4.339
43.50000 3.386
43.56000 4.111
43.62000 1.003
43.68000 5.369
43.74000 3.446
43.80000 5.047
43.86000 4.458
43.92000 6.025
43.98000 5.347
44.04000 3.111
44.10000 1.015
44.16000 5.347
44.22000 5.432
44.28000 5.761
44.34000 11.020
44.40000 11.340
44.46000 12.255
44.52000 13.573
44.58000 16.574
44.64000 15.535
44.70000 20.393
44.76000 39.017
44.82000 55.356
44.88000 73.754
44.94000 103.128
45.00000 112.288
45.06000 130.375
45.12000 149.905
45.18000 122.284
45.24000 93.886
45.30000 63.334
45.36000 39.912
45.42000 19.265
45.48000 12.840
45.54000 11.397
45.60000 12.529
45.66000 9.860
45.72000 8.429
45.78000 6.357
45.84000 7.101
45.90000 8.373
45.96000 6.164
46.02000 3.052
46.08000 6.120
46.14000 6.166
46.20000 5.026
46.26000 2.336
46.32000 3.094
46.38000 4.074
46.44000 7.166
46.50000 4.094
46.56000 1.063
46.62000 0.985
46.68000 6.170
46.74000 5.866
46.80000 8.251
46.86000 4.104
46.92000 2.059
46.98000 4.051
47.00000 0.000

File: Dilan_Full_Stack_Training_3_grazing_incidience_Map_001_2_30-000_0-000.xy
30.00000 17.449
30.06000 17.554
30.12000 16.276
30.18000 22.311
30.24000 7.503
30.30000 18.379
30.36000 15.683
30.42000 13.482
30.48000 17.520
30.54000 18.589
30.60000 16.937
30.66000 14.224
30.72000 19.300
30.78000 19.028
30.84000 23.847
30.90000 24.092
30.96000 29.663
31.02000 36.167
31.08000 42.318
31.14000 69.586
31.20000 98.366
31.26000 199.795
31.32000 287.649
31.38000 359.721
31.44000 415.786
31.50000 462.850
31.56000 364.025
31.62000 295.562
31.68000 179.801
31.74000 104.785
31.80000 48.469
31.86000 37.900
31.92000 25.122
31.98000 12.684
32.04000 21.417
32.10000 14.910
32.16000 14.894
32.22000 12.303
32.28000 13.239
32.34000 10.474
32.40000 11.193
32.46000 12.579
32.52000 7.146
32.58000 11.538
32.64000 10.092
32.70000 8.802
32.76000 13.185
32.82000 11.914
32.88000 6.092
32.94000 11.283
33.00000 7.745
33.06000 9.172
33.12000 4.376
33.18000 11.707
33.24000 8.080
33.30000 7.446
33.36000 12.231
33.42000 8.420
33.48000 9.306
33.54000 9.354
33.60000 10.862
33.66000 4.124
33.72000 3.813
33.78000 5.107
33.84000 6.109
33.90000 8.140
33.96000 8.387
34.02000 5.406
34.08000 7.155
34.14000 10.083
34.20000 5.450
34.26000 8.153
34.32000 16.036
34.38000 3.372
34.44000 8.156
34.50000 6.077
34.56000 11.262
34.62000 7.541
34.68000 6.209
34.74000 11.542
34.80000 6.333
34.86000 8.163
34.92000 7.420
34.98000 10.995
35.04000 7.143
35.10000 3.363
35.16000 6.209
35.22000 8.778
35.28000 5.742
35.34000 4.036
35.40000 7.168
35.46000 10.151
35.52000 6.803
35.58000 8.054
35.64000 5.333
35.70000 8.098
35.76000 5.432
35.82000 9.476
35.88000 9.060
35.94000 8.452
36.00000 12.217
36.06000 6.121
36.12000 6.165
36.18000 8.206
36.24000 4.087
36.30000 3.065
36.36000 5.407
36.42000 7.701
36.48000 5.063
36.54000 8.149
36.60000 5.402
36.66000 8.533
36.72000 4.100
36.78000 5.107
36.84000 8.220
36.90000 2.069
36.96000 9.206
37.02000 9.588
37.08000 6.199
37.14000 7.401
37.20000 2.020
37.26000 6.206
37.32000 11.136
37.38000 8.288
37.44000 7.573
37.50000 11.224
37.56000 9.133
37.62000 4.813
37.68000 5.081
37.74000 7.365
37.80000 8.187
37.86000 9.845
37.92000 7.396
37.98000 1.024
38.04000 9.160
38.10000 5.101
38.16000 6.370
38.22000 10.133
38.28000 12.101
38.34000 9.153
38.40000 9.160
38.46000 25.026
38.52000 32.360
38.58000 45.702
38.64000 88.707
38.70000 110.127
38.76000 123.886
38.82000 159.862
38.88000 112.526
38.94000 127.246
39.00000 82.590
39.06000 73.795
39.12000 23.153
39.18000 19.644
39.24000 15.190
39.30000 11.538
39.36000 9.181
39.42000 5.351
39.48000 4.657
39.54000 8.469
39.60000 7.195
39.66000 6.053
39.72000 6.117
39.78000 11.186
39.84000 4.969
39.90000 7.286
39.96000 7.187
40.02000 7.079
40.08000 8.219
40.14000 4.076
40.20000 10.520
40.26000 5.381
40.32000 5.350
40.38000 2.022
40.44000 8.170
40.50000 6.126
40.56000 6.086
40.62000 4.102
40.68000 6.108
40.74000 3.012
40.80000 6.129
40.86000 4.025
40.92000 6.124
40.98000 3.413
41.04000 2.377
41.10000 9.263
41.16000 0.000
41.22000 4.102
41.28000 5.081
41.34000 3.052
41.40000 7.146
41.46000 3.071
41.52000 2.357
41.58000 3.076
41.64000 6.471
41.70000 3.080
41.76000 5.993
41.82000 4.968
41.88000 3.043
41.94000 1.048
42.00000 5.030
42.06000 4.057
42.12000 5.420
42.18000 5.445
42.24000 5.717
42.30000 6.459
42.36000 4.084
42.42000 6.131
42.48000 5.444
42.54000 7.538
42.60000 5.149
42.66000 8.108
42.72000 4.379
42.78000 2.040
42.84000 10.091
42.90000 6.175
42.96000 3.087
43.02000 6.389
43.08000 5.344
43.14000 7.157
43.20000 3.370
43.26000 1.019
43.32000 4.058
43.38000 5.465
43.44000 8.155
43.50000 5.025
43.56000 9.869
43.62000 7.991
43.68000 8.137
43.74000 7.155
43.80000 4.372
43.86000 2.038
43.92000 7.180
43.98000 9.117
44.04000 4.015
44.10000 4.474
44.16000 7.393
44.22000 7.542
44.28000 9.227
44.34000 7.178
44.40000 7.447
44.46000 16.329
44.52000 10.480
44.58000 17.160
44.64000 18.191
44.70000 15.588
44.76000 19.995
44.82000 38.467
44.88000 45.958
44.94000 66.989
45.00000 77.021
45.06000 102.206
45.12000 93.937
45.18000 79.630
45.24000 77.286
45.30000 42.335
45.36000 20.968
45.42000 20.029
45.48000 13.911
45.54000 11.528
45.60000 8.195
45.66000 8.448
45.72000 8.112
45.78000 10.349
45.84000 3.745
45.90000 5.162
45.96000 3.052
46.02000 6.399
46.08000 4.402
46.14000 0.000
46.20000 1.979
46.26000 5.487
46.32000 5.064
46.38000 3.079
46.44000 4.378
46.50000 3.038
46.56000 2.317
46.62000 6.424
46.68000 5.428
46.74000 2.366
46.80000 8.086
46.86000 5.066
46.92000 4.088
46.98000 6.103
47.00000 4.056

File: Dilan_test_2.xy
20.00000 13.460
20.17000 13.377
20.34000 11.282
20.51000 8.133
20.68000 5.084
20.85000 16.297
21.02000 11.263
21.19000 6.089
21.36000 13.340
21.53000 9.179
21.70000 8.098
21.87000 16.523
22.04000 13.291
22.21000 11.160
22.38000 6.244
22.55000 11.292
22.72000 8.242
22.89000 9.038
23.06000 11.239
23.23000 15.218
23.40000 12.214
23.57000 13.286
23.74000 7.226
23.91000 10.218
24.08000 13.404
24.25000 9.304
24.42000 1.038
24.59000 6.110
24.76000 7.167
24.93000 9.226
25.10000 11.369
25.27000 15.279
25.44000 12.331
25.61000 5.206
25.78000 6.230
25.95000 5.082
26.12000 13.165
26.29000 9.307
26.46000 8.230
26.63000 10.211
26.80000 5.081
26.97000 10.200
27.14000 9.282
27.31000 8.224
27.48000 10.233
27.65000 6.054
27.82000 10.122
27.99000 7.226
28.16000 5.088
28.33000 7.216
28.50000 8.175
28.67000 3.012
28.84000 10.107
29.01000 5.188
29.18000 8.204
29.35000 5.192
29.52000 6.174
29.69000 6.059
29.86000 3.997
30.03000 8.134
30.20000 5.969
30.37000 7.188
30.54000 10.153
30.71000 9.091
30.88000 5.150
31.05000 12.418
31.22000 8.188
31.39000 6.168
31.56000 5.121
31.73000 4.060
31.90000 3.012
32.07000 6.183
32.24000 9.093
32.41000 4.113
32.58000 7.306
32.75000 3.049
32.92000 7.154
33.09000 5.149
33.26000 6.179
33.43000 7.205
33.60000 8.195
33.77000 3.063
33.94000 3.017
34.11000 9.094
34.28000 8.189
34.45000 5.083
34.62000 5.115
34.79000 6.121
34.96000 6.103
35.13000 8.165
35.30000 3.016
35.47000 3.036
35.64000 13.061
35.81000 5.112
35.98000 3.088
36.15000 2.099
36.32000 3.042
36.49000 4.115
36.66000 1.023
36.83000 2.077
37.00000 6.223
37.17000 9.052
37.34000 4.141
37.51000 4.060
37.68000 9.369
37.85000 6.088
38.02000 6.189
38.19000 13.352
38.36000 7.148
38.53000 8.233
38.70000 3.102
38.87000 6.202
39.04000 4.031
39.21000 4.130
39.38000 2.046
39.55000 3.074
39.72000 4.110
39.89000 4.023
40.06000 5.057
40.23000 4.127
40.40000 7.084
40.57000 6.120
40.74000 5.012
40.91000 8.184
41.08000 4.046
41.25000 1.996
41.42000 4.181
41.59000 1.001
41.76000 1.988
41.93000 4.142
42.10000 0.000
42.27000 3.111
42.44000 5.057
42.61000 9.166
42.78000 18.332
42.95000 23.477
43.12000 12.236
43.29000 8.007
43.46000 5.029
43.63000 2.003
43.80000 9.174
43.97000 8.200
44.14000 8.157
44.31000 9.280
44.48000 8.175
44.65000 4.019
44.82000 3.024
44.99000 11.095
45.16000 4.134
45.33000 2.032
45.50000 3.075
45.67000 3.040
45.84000 3.054
46.01000 5.992
46.18000 3.098
46.35000 3.091
46.52000 6.114
46.69000 5.029
46.86000 6.172
47.03000 6.162
47.20000 6.174
47.37000 0.999
47.54000 3.026
47.71000 7.128
47.88000 5.127
48.05000 3.052
48.22000 2.086
48.39000 4.199
48.56000 8.129
48.73000 1.011
48.90000 1.011
49.07000 4.024
49.24000 5.088
49.41000 5.140
49.58000 2.047
49.75000 1.992
49.92000 2.049
50.09000 1.978
50.26000 4.007
50.43000 2.019
50.60000 4.090
50.77000 4.038
50.94000 3.064
51.11000 5.241
51.28000 4.033
51.45000 3.076
51.62000 4.057
51.79000 7.131
51.96000 7.160
52.13000 9.139
52.30000 3.096
52.47000 4.129
52.64000 3.110
52.81000 4.034
52.98000 1.085
53.15000 4.002
53.32000 3.047
53.49000 3.041
53.66000 3.047
53.83000 5.167
54.00000 2.029
54.17000 2.068
54.34000 1.998
54.51000 4.037
54.68000 4.028
54.85000 1.979
55.02000 4.099
55.19000 2.107
55.36000 6.016
55.53000 4.064
55.70000 3.029
55.87000 6.094
56.04000 6.102
56.21000 2.072
56.38000 3.965
56.55000 1.035
56.72000 4.083
56.89000 3.039
57.06000 3.095
57.23000 1.055
57.40000 6.164
57.57000 4.050
57.74000 0.997
57.91000 3.019
58.08000 6.023
58.25000 3.112
58.42000 3.007
58.59000 5.026
58.76000 5.085
58.93000 3.071
59.10000 5.057
59.27000 4.102
59.44000 3.025
59.61000 3.069
59.78000 4.011
59.95000 2.004
60.12000 1.012
60.29000 3.083
60.46000 2.106
60.63000 5.153
60.80000 1.004
60.97000 5.114
61.14000 0.993
61.31000 3.069
61.48000 3.023
61.65000 3.075
61.82000 5.130
61.99000 4.049
62.16000 8.193
62.33000 17.427
62.50000 8.132
62.67000 6.018
62.84000 4.115
63.01000 6.179
63.18000 5.115
63.35000 2.032
63.52000 6.097
63.69000 5.068
63.86000 4.140
64.03000 1.044
64.20000 2.057
64.37000 3.036
64.54000 4.118
64.71000 9.158
64.88000 3.083
65.05000 3.056
65.22000 7.114
65.39000 3.110
65.56000 7.140
65.73000 3.094
65.90000 1.002
66.07000 5.167
66.24000 5.045
66.41000 5.121
66.58000 2.012
66.75000 9.100
66.92000 3.064
67.09000 2.093
67.26000 1.006
67.43000 3.110
67.60000 7.071
67.77000 5.091
67.94000 2.003
68.11000 3.063
68.28000 3.060
68.45000 2.072
68.62000 6.147
68.79000 4.156
68.96000 2.049
69.13000 1.016
69.30000 5.092
69.47000 2.011
69.64000 2.097
69.81000 2.075
69.98000 1.000
70.00000 2.018