Folder: Master-Thesis/XRD/XRD/Grazing Incidence/XY Data

File: Dilan_Full_Stack_Training_3_grazing_incidience.xy
20.00000 193.102
20.17000 193.142
20.34000 181.220
20.51000 220.080
20.68000 181.775
20.85000 204.058
21.02000 200.845
21.19000 196.500
21.36000 199.409
21.53000 183.889
21.70000 228.556
21.87000 439.618
22.04000 908.891
22.21000 888.382
22.38000 438.291
22.55000 174.995
22.72000 176.769
22.89000 197.544
23.06000 170.534
23.23000 157.533
23.40000 150.413
23.57000 145.158
23.74000 162.695
23.91000 146.415
24.08000 144.985
24.25000 156.710
24.42000 166.479
24.59000 151.188
24.76000 159.929
24.93000 129.334
25.10000 140.977
25.27000 155.632
25.44000 146.952
25.61000 141.141
25.78000 140.402
25.95000 159.193
26.12000 132.843
26.29000 111.191
26.46000 158.860
26.63000 130.163
26.80000 143.826
26.97000 145.858
27.14000 136.232
27.31000 160.954
27.48000 151.289
27.65000 153.058
27.82000 148.221
27.99000 153.077
28.16000 171.969
28.33000 188.077
28.50000 162.275
28.67000 153.818
28.84000 143.847
29.01000 164.163
29.18000 139.045
29.35000 170.754
29.52000 172.872
29.69000 166.250
29.86000 226.717
30.03000 324.910
30.20000 291.873
30.37000 302.150
30.54000 309.956
30.71000 325.964
30.88000 517.178
31.05000 1040.411
31.22000 4075.833
31.39000 12079.624
31.56000 12093.029
31.73000 3783.406
31.90000 695.224
32.07000 370.541
32.24000 251.577
32.41000 176.304
32.58000 177.150
32.75000 172.318
32.92000 142.047
33.09000 137.803
33.26000 121.814
33.43000 135.006
33.60000 142.932
33.77000 101.161
33.94000 121.867
34.11000 92.604
34.28000 112.149
34.45000 89.876
34.62000 91.806
34.79000 121.199
34.96000 115.030
35.13000 105.062
35.30000 87.903
35.47000 90.227
35.64000 91.995
35.81000 107.411
35.98000 90.760
36.15000 90.112
36.32000 72.002
36.49000 104.497
36.66000 100.751
36.83000 83.902
37.00000 120.850
37.17000 107.279
37.34000 90.271
37.51000 113.399
37.68000 110.024
37.85000 110.764
38.02000 118.898
38.19000 135.132
38.36000 185.562
38.53000 424.174
38.70000 1206.322
38.87000 1621.368
39.04000 765.124
39.21000 242.441
39.38000 121.033
39.55000 119.733
39.72000 93.662
39.89000 76.196
40.06000 89.732
40.23000 78.091
40.40000 79.777
40.57000 101.791
40.74000 71.589
40.91000 85.687
41.08000 79.025
41.25000 82.838
41.42000 74.037
41.59000 81.667
41.76000 74.913
41.93000 89.791
42.10000 58.161
42.27000 83.128
42.44000 76.621
42.61000 89.055
42.78000 79.019
42.95000 106.969
43.12000 128.539
43.29000 100.966
43.46000 97.833
43.63000 103.674
43.80000 105.171
43.97000 118.280
44.14000 134.074
44.31000 158.382
44.48000 242.262
44.65000 422.596
44.82000 1227.690
44.99000 2978.892
45.16000 3220.883
45.33000 1515.096
45.50000 447.405
45.67000 207.999
45.84000 151.091
46.01000 132.989
46.18000 109.426
46.35000 107.181
46.52000 86.010
46.69000 77.798
46.86000 85.780
47.03000 105.714
47.20000 74.780
47.37000 75.706
47.54000 76.311
47.71000 65.826
47.88000 81.740
48.05000 90.378
48.22000 66.182
48.39000 82.781
48.56000 77.201
48.73000 67.849
48.90000 74.066
49.07000 81.615
49.24000 84.704
49.41000 91.157
49.58000 84.011
49.75000 95.206
49.92000 76.862
50.09000 119.150
50.26000 156.628
50.43000 284.429
50.60000 750.664
50.77000 984.411
50.94000 703.267
51.11000 266.085
51.28000 124.377
51.45000 110.047
51.62000 72.981
51.79000 63.866
51.96000 86.928
52.13000 65.519
52.30000 72.144
52.47000 73.865
52.64000 67.824
52.81000 70.671
52.98000 76.079
53.15000 74.847
53.32000 89.078
53.49000 86.844
53.66000 77.047
53.83000 91.662
54.00000 79.821
54.17000 91.667
54.34000 76.602
54.51000 80.722
54.68000 105.151
54.85000 94.036
55.02000 118.765
55.19000 146.683
55.36000 194.306
55.53000 381.849
55.70000 913.491
55.87000 1921.444
56.04000 2333.839
56.21000 1562.559
56.38000 679.211
56.55000 254.275
56.72000 131.955
56.89000 133.848
57.06000 121.694
57.23000 97.806
57.40000 85.928
57.57000 70.093
57.74000 86.380
57.91000 61.234
58.08000 71.001
58.25000 83.778
58.42000 88.830
58.59000 60.885
58.76000 66.035
58.93000 67.068
59.10000 69.749
59.27000 76.678
59.44000 70.131
59.61000 58.806
59.78000 55.043
59.95000 52.740
60.12000 64.098
60.29000 67.710
60.46000 48.933
60.63000 64.898
60.80000 58.742
60.97000 47.857
61.14000 59.390
61.31000 49.086
61.48000 67.008
61.65000 56.717
61.82000 55.058
61.99000 62.567
62.16000 63.841
62.33000 54.099
62.50000 83.917
62.67000 57.613
62.84000 68.170
63.01000 62.915
63.18000 49.864
63.35000 74.010
63.52000 53.742
63.69000 55.743
63.86000 64.115
64.03000 81.751
64.20000 60.106
64.37000 51.936
64.54000 72.904
64.71000 101.920
64.88000 95.771
65.05000 125.134
65.22000 313.523
65.39000 666.595
65.56000 1086.906
65.73000 993.923
65.90000 663.357
66.07000 290.211
66.24000 115.240
66.41000 95.154
66.58000 75.563
66.75000 85.140
66.92000 80.272
67.09000 60.582
67.26000 61.725
67.43000 58.102
67.60000 60.049
67.77000 58.025
67.94000 54.520
68.11000 57.855
68.28000 59.075
68.45000 47.938
68.62000 64.623
68.79000 56.028
68.96000 64.668
69.13000 58.792
69.30000 65.721
69.47000 81.686
69.64000 102.115
69.81000 163.358
69.98000 282.717
70.00000 251.606

File: Dilan_Full_Stack_Training_3_grazing_incidience_Map_001_3_-30-000_0-000.xy
30.00000 19.502
30.06000 19.039
30.12000 22.287
30.18000 17.594
30.24000 20.895
30.30000 16.113
30.36000 14.293
30.42000 17.540
30.48000 14.373
30.54000 19.426
30.60000 25.688
30.66000 32.767
30.72000 39.702
30.78000 41.063
30.84000 40.713
30.90000 64.827
30.96000 60.228
31.02000 101.996
31.08000 189.620
31.14000 313.356
31.20000 573.789
31.26000 773.968
31.32000 938.158
31.38000 959.122
31.44000 842.819
31.50000 604.115
31.56000 407.156
31.62000 205.178
31.68000 112.032
31.74000 72.534
31.80000 44.786
31.86000 23.850
31.92000 25.375
31.98000 20.921
32.04000 20.564
32.10000 21.094
32.16000 16.245
32.22000 19.146
32.28000 11.616
32.34000 7.398
32.40000 10.268
32.46000 7.165
32.52000 10.634
32.58000 10.847
32.64000 11.178
32.70000 15.100
32.76000 14.237
32.82000 11.306
32.88000 12.545
32.94000 7.452
33.00000 6.749
33.06000 5.977
33.12000 9.543
33.18000 12.426
33.24000 5.037
33.30000 12.374
33.36000 8.060
33.42000 10.275
33.48000 11.421
33.54000 6.189
33.60000 7.350
33.66000 9.252
33.72000 15.612
33.78000 12.352
33.84000 5.446
33.90000 8.852
33.96000 11.163
34.02000 7.169
34.08000 6.111
34.14000 12.488
34.20000 13.145
34.26000 11.069
34.32000 7.403
34.38000 8.057
34.44000 4.022
34.50000 8.195
34.56000 5.457
34.62000 7.449
34.68000 1.389
34.74000 7.503
34.80000 17.312
34.86000 5.034
34.92000 6.990
34.98000 11.182
35.04000 7.133
35.10000 6.185
35.16000 5.092
35.22000 7.686
35.28000 8.034
35.34000 4.347
35.40000 4.387
35.46000 4.033
35.52000 4.690
35.58000 4.192
35.64000 5.144
35.70000 5.728
35.76000 7.358
35.82000 7.745
35.88000 2.389
35.94000 5.030
36.00000 5.491
36.06000 9.201
36.12000 10.081
36.18000 5.149
36.24000 2.050
36.30000 3.070
36.36000 10.230
36.42000 9.500
36.48000 2.029
36.54000 5.013
36.60000 7.156
36.66000 4.030
36.72000 5.029
36.78000 3.027
36.84000 3.102
36.90000 3.442
36.96000 9.475
37.02000 7.160
37.08000 9.159
37.14000 10.194
37.20000 10.756
37.26000 9.163
37.32000 8.033
37.38000 7.395
37.44000 3.058
37.50000 6.346
37.56000 1.995
37.62000 7.091
37.68000 4.329
37.74000 11.401
37.80000 7.500
37.86000 7.205
37.92000 6.430
37.98000 4.046
38.04000 11.456
38.10000 4.164
38.16000 10.245
38.22000 10.151
38.28000 8.484
38.34000 12.371
38.40000 13.606
38.46000 19.323
38.52000 27.536
38.58000 28.070
38.64000 42.888
38.70000 40.762
38.76000 30.625
38.82000 32.352
38.88000 21.204
38.94000 15.719
39.00000 8.823
39.06000 9.007
39.12000 11.264
39.18000 9.418
39.24000 4.329
39.30000 9.139
39.36000 6.357
39.42000 7.009
39.48000 6.152
39.54000 8.478
39.60000 4.128
39.66000 6.092
39.72000 4.011
39.78000 4.080
39.84000 1.370
39.90000 2.017
39.96000 11.205
40.02000 7.060
40.08000 7.105
40.14000 10.120
40.20000 6.056
40.26000 7.102
40.32000 5.417
40.38000 3.365
40.44000 8.203
40.50000 7.034
40.56000 2.053
40.62000 0.995
40.68000 4.013
40.74000 6.155
40.80000 4.988
40.86000 9.099
40.92000 6.037
40.98000 3.037
41.04000 2.721
41.10000 3.000
41.16000 4.044
41.22000 3.984
41.28000 5.218
41.34000 9.230
41.40000 2.037
41.46000 4.998
41.52000 4.100
41.58000 4.062
41.64000 4.019
41.70000 0.000
41.76000 4.070
41.82000 2.030
41.88000 6.147
41.94000 2.034
42.00000 3.083
42.06000 4.122
42.12000 3.059
42.18000 2.326
42.24000 5.040
42.30000 0.000
42.36000 7.119
42.42000 5.013
42.48000 2.998
42.54000 2.031
42.60000 3.054
42.66000 3.054
42.72000 5.037
42.78000 8.043
42.84000 4.366
42.90000 9.512
42.96000 5.405
43.02000 5.050
43.08000 5.300
43.14000 5.120
43.20000 8.202
43.26000 2.006
43.32000 5.012
43.38000 2.018
43.44000 7.111
43.50000 3.366
43.56000 6.190
43.62000 4.201
43.68000 1.989
43.74000 5.360
43.80000 1.386
43.86000 8.409
43.92000 7.176
43.98000 3.045
44.04000 9.415
44.10000 3.078
44.16000 5.345
44.22000 6.396
44.28000 9.092
44.34000 10.797
44.40000 13.568
44.46000 9.033
44.52000 8.057
44.58000 16.364
44.64000 31.639
44.70000 35.635
44.76000 57.282
44.82000 88.293
44.88000 70.263
44.94000 122.815
45.00000 128.859
45.06000 84.884
45.12000 83.775
45.18000 68.356
45.24000 48.928
45.30000 34.475
45.36000 18.233
45.42000 12.552
45.48000 11.204
45.54000 10.454
45.60000 10.182
45.66000 2.971
45.72000 2.004
45.78000 4.021
45.84000 8.032
45.90000 3.068
45.96000 7.544
46.02000 8.488
46.08000 5.981
46.14000 8.094
46.20000 2.365
46.26000 1.015
46.32000 1.720
46.38000 5.087
46.44000 6.138
46.50000 4.394
46.56000 4.044
46.62000 1.004
46.68000 4.802
46.74000 3.037
46.80000 4.381
46.86000 6.014
46.92000 7.967
46.98000 6.106
47.00000 5.080

File: Dilan_Full_Stack_Training_theta-2theta_001.xy
20.00000 43.849
20.19000 49.931
20.38000 37.712
20.57000 54.138
20.76000 56.147
20.95000 44.918
21.14000 53.956
21.33000 48.919
21.52000 50.934
21.71000 89.320
21.90000 146.573
22.09000 194.056
22.28000 79.623
22.47000 84.912
22.66000 63.030
22.85000 60.529
23.04000 46.104
23.23000 53.957
23.42000 45.895
23.61000 51.093
23.80000 50.001
23.99000 56.070
24.18000 45.681
24.37000 39.777
24.56000 40.848
24.75000 51.860
24.94000 41.735
25.13000 43.975
25.32000 40.894
25.51000 43.722
25.70000 54.215
25.89000 55.273
26.08000 56.276
26.27000 34.559
26.46000 47.837
26.65000 50.081
26.84000 40.801
27.03000 44.744
27.22000 37.964
27.41000 36.729
27.60000 41.840
27.79000 34.813
27.98000 30.594
28.17000 45.965
28.36000 41.686
28.55000 44.933
28.74000 45.226
28.93000 45.762
29.12000 33.525
29.31000 42.713
29.50000 33.416
29.69000 40.973
29.88000 50.990
30.07000 55.336
30.26000 60.071
30.45000 41.684
30.64000 58.143
30.83000 70.252
31.02000 155.254
31.21000 709.152
31.40000 1376.781
31.59000 259.071
31.78000 82.471
31.97000 50.119
32.16000 43.735
32.35000 48.184
32.54000 27.312
32.73000 22.468
32.92000 30.565
33.11000 26.631
33.30000 24.469
33.49000 26.517
33.68000 25.419
33.87000 17.471
34.06000 20.428
34.25000 28.621
34.44000 23.374
34.63000 29.705
34.82000 14.376
35.01000 23.348
35.20000 16.220
35.39000 12.300
35.58000 17.265
35.77000 15.409
35.96000 24.648
36.15000 21.448
36.34000 20.291
36.53000 25.471
36.72000 16.273
36.91000 19.339
37.10000 21.414
37.29000 19.364
37.48000 21.279
37.67000 22.437
37.86000 24.639
38.05000 25.609
38.24000 30.426
38.43000 74.691
38.62000 214.086
38.81000 158.570
39.00000 51.054
39.19000 31.592
39.38000 27.556
39.57000 22.356
39.76000 24.356
39.95000 26.625
40.14000 14.261
40.33000 27.709
40.52000 20.309
40.71000 18.400
40.90000 23.340
41.09000 24.143
41.28000 23.264
41.47000 33.951
41.66000 18.236
41.85000 12.353
42.04000 17.373
42.23000 20.379
42.42000 16.224
42.61000 13.462
42.80000 19.562
42.99000 26.542
43.18000 18.406
43.37000 17.349
43.56000 14.234
43.75000 11.204
43.94000 24.459
44.13000 20.366
44.32000 34.555
44.51000 31.630
44.70000 54.285
44.89000 119.366
45.08000 132.755
45.27000 58.163
45.46000 38.769
45.65000 13.459
45.84000 24.470
46.03000 16.275
46.22000 23.543
46.41000 22.505
46.60000 18.470
46.79000 18.540
46.98000 15.341
47.17000 17.464
47.36000 18.327
47.55000 15.181
47.74000 17.301
47.93000 22.327
48.12000 13.297
48.31000 16.366
48.50000 17.434
48.69000 14.304
48.88000 18.293
49.07000 14.262
49.26000 25.419
49.45000 22.383
49.64000 13.301
49.83000 21.361
50.02000 16.322
50.21000 22.498
50.40000 37.911
50.59000 80.393
50.78000 52.985
50.97000 14.322
51.16000 26.414
51.35000 21.493
51.54000 20.379
51.73000 21.463
51.92000 11.217
52.11000 22.391
52.30000 18.273
52.49000 15.276
52.68000 23.440
52.87000 18.407
53.06000 16.343
53.25000 20.604
53.44000 23.279
53.63000 14.143
53.82000 11.033
54.01000 24.601
54.20000 21.525
54.39000 25.670
54.58000 15.269
54.77000 25.560
54.96000 20.428
55.15000 27.725
55.34000 27.383
55.53000 52.860
55.72000 136.157
55.91000 225.020
56.10000 68.642
56.29000 32.609
56.48000 24.383
56.67000 12.204
56.86000 19.152
57.05000 24.395
57.24000 22.512
57.43000 13.224
57.62000 12.170
57.81000 13.361
58.00000 15.296
58.19000 22.422
58.38000 18.411
58.57000 11.109
58.76000 13.216
58.95000 22.371
59.14000 17.332
59.33000 12.212
59.52000 14.241
59.71000 15.317
59.90000 12.165
60.09000 15.306
60.28000 13.279
60.47000 10.141
60.66000 14.346
60.85000 16.274
61.04000 23.409
61.23000 19.317
61.42000 16.184
61.61000 14.424
61.80000 32.636
61.99000 20.427
62.18000 20.428
62.37000 25.438
62.56000 22.543
62.75000 25.536
62.94000 17.314
63.13000 11.083
63.32000 25.658
63.51000 15.222
63.70000 28.541
63.89000 22.373
64.08000 16.125
64.27000 26.540
64.46000 33.561
64.65000 34.477
64.84000 32.660
65.03000 40.918
65.22000 63.040
65.41000 102.288
65.60000 80.454
65.79000 85.795
65.98000 59.283
66.17000 69.416
66.36000 43.791
66.55000 63.422
66.74000 69.427
66.93000 70.783
67.12000 93.160
67.31000 112.183
67.50000 118.018
67.69000 161.084
67.88000 169.886
68.07000 191.520
68.26000 242.324
68.45000 364.300
68.64000 582.262
68.83000 779.656
69.02000 997.161
69.21000 1078.113
69.40000 916.726
69.59000 711.468
69.78000 440.791
69.97000 321.868
70.16000 217.449
70.35000 183.485
70.54000 154.200
70.73000 103.772
70.92000 95.459
71.11000 91.173
71.30000 81.784
71.49000 66.335
71.68000 57.131
71.87000 35.590
72.06000 53.966
72.25000 59.272
72.44000 46.746
72.63000 40.953
72.82000 38.955
73.01000 34.599
73.20000 39.929
73.39000 34.840
73.58000 30.572
73.77000 27.348
73.96000 36.868
74.15000 33.693
74.34000 44.816
74.53000 60.000
74.72000 39.876
74.91000 38.731
75.00000 23.497

File: Dilan_test_4gixrd.xy
0.52680 131.286
0.53080 106.429
0.53480 118.546
0.53880 88.107
0.54280 111.142
0.54680 114.819
0.55080 111.395
0.55480 107.140
0.55880 109.483
0.56280 116.172
0.56680 91.047
0.57080 94.011
0.57480 110.719
0.57880 112.788
0.58280 123.506
0.58680 126.852
0.59080 129.341
0.59480 133.942
0.59880 150.949
0.60280 177.650
0.60680 164.123
0.61080 191.978
0.61480 214.108
0.61880 216.697
0.62280 261.493
0.62680 236.641
0.63080 243.885
0.63480 242.567
0.63880 247.443
0.64280 258.846
0.64680 280.110
0.65080 278.561
0.65480 250.232
0.65880 283.308
0.66280 268.699
0.66680 222.180
0.67080 293.802
0.67480 255.090
0.67880 244.692
0.68280 228.456
0.68680 245.071
0.69080 266.251
0.69480 274.993
0.69880 250.144
0.70280 264.032
0.70680 284.370
0.71080 357.113
0.71480 338.669
0.71880 349.742
0.72280 389.130
0.72680 433.952
0.73080 443.680
0.73480 483.450
0.73880 492.698
0.74280 556.793
0.74680 600.548
0.75080 706.421
0.75480 759.625
0.75880 955.000
0.76280 1258.234
0.76680 1919.028
0.77080 2635.000
0.77480 3746.418
0.77880 5764.258
0.78280 8006.738
0.78680 13973.368
0.79080 23673.000
0.79480 38479.539
0.79880 66387.641
0.80280 95666.898
0.80680 137013.969
0.81080 186112.063
0.81480 217446.844
0.81880 267534.281
0.82280 290651.250
0.82680 308687.438
0.83080 297864.688
0.83480 273245.750
0.83880 231574.875
0.84280 179398.609
0.84680 140588.141
0.85080 91003.164
0.85480 62582.527
0.85880 33379.934
0.86280 17115.865
0.86680 9688.048
0.87080 4493.680

File: Dilan_test_gixrd.xy
36.00000 43.947
36.10000 51.128
36.20000 38.126
36.30000 47.823
36.40000 46.033
36.50000 59.035
36.60000 56.033
36.70000 47.133
36.80000 46.141
36.90000 38.215
37.00000 54.212
37.10000 42.831
37.20000 60.255
37.30000 47.920
37.40000 42.612
37.50000 41.226
37.60000 58.763
37.70000 49.212
37.80000 55.198
37.90000 67.582
38.00000 67.014
38.10000 89.138
38.20000 63.756
38.30000 64.890
38.40000 58.072
38.50000 59.061
38.60000 57.056
38.70000 57.229
38.80000 48.899
38.90000 60.098
39.00000 46.961
39.10000 66.015
39.20000 58.290
39.30000 57.859
39.40000 49.554
39.50000 50.027
39.60000 53.782
39.70000 37.872
39.80000 56.791
39.90000 54.027
40.00000 75.154
40.10000 62.003
40.20000 57.068
40.30000 48.789
40.40000 53.878
40.50000 45.885
40.60000 42.035
40.70000 56.051
40.80000 38.895
40.90000 42.025
41.00000 68.246
41.10000 49.946
41.20000 50.910
41.30000 64.713
41.40000 54.347
41.50000 58.847
41.60000 61.994
41.70000 55.774
41.80000 62.920
41.90000 66.874
42.00000 68.975
42.10000 50.845
42.20000 59.767
42.30000 64.179
42.40000 68.226
42.50000 85.306
42.60000 106.116
42.70000 115.441
42.80000 147.181
42.90000 181.195
43.00000 197.713
43.10000 140.061
43.20000 139.667
43.30000 102.989
43.40000 96.373
43.50000 76.984
43.60000 53.876
43.70000 74.741
43.80000 60.985
43.90000 69.609
44.00000 69.843
44.10000 54.027
44.20000 64.801
44.30000 68.993
44.40000 69.113
44.50000 75.213
44.60000 74.076
44.70000 70.888
44.80000 55.135
44.90000 60.011
45.00000 57.473
45.10000 58.974
45.20000 58.120
45.30000 71.389
45.40000 59.726
45.50000 57.276
45.60000 65.931
45.70000 61.090
45.80000 60.117
45.90000 50.995
46.00000 46.185
46.10000 43.024
46.20000 60.759
46.30000 40.999
46.40000 43.121
46.50000 44.023
46.60000 54.876
46.70000 37.069
46.80000 51.817
46.90000 53.908
47.00000 71.982
47.10000 53.016
47.20000 45.866
47.30000 50.057
47.40000 54.882
47.50000 55.863
47.60000 50.094
47.70000 49.690
47.80000 38.145
47.90000 41.754
48.00000 56.311
48.10000 53.802
48.20000 38.046
48.30000 50.739
48.40000 45.964
48.50000 53.895
48.60000 48.161
48.70000 44.529
48.80000 39.190
48.90000 63.937
49.00000 53.230
49.10000 46.030
49.20000 50.785
49.30000 54.936
49.40000 43.182
49.50000 49.787
49.60000 39.901
49.70000 47.170
49.80000 53.089
49.90000 33.695
50.00000 62.171
50.10000 61.601
50.20000 53.051
50.30000 37.078
50.40000 50.888
50.50000 50.987
50.60000 48.133
50.70000 41.333
50.80000 38.957
50.90000 36.248
51.00000 52.867
51.10000 48.820
51.20000 47.029
51.30000 39.065
51.40000 43.100
51.50000 40.989
51.60000 43.902
51.70000 48.936
51.80000 54.885
51.90000 40.131
52.00000 52.061
52.10000 31.030
52.20000 41.098
52.30000 48.045
52.40000 37.972
52.50000 42.926
52.60000 45.783
52.70000 41.929
52.80000 37.975
52.90000 41.979
53.00000 48.244
53.10000 44.066
53.20000 57.941
53.30000 41.891
53.40000 40.873
53.50000 36.950
53.60000 34.769
53.70000 40.087
53.80000 51.938
53.90000 44.176
54.00000 35.835
54.10000 37.102
54.20000 37.954
54.30000 39.849
54.40000 38.004
54.50000 48.911
54.60000 46.248
54.70000 45.040
54.80000 43.590
54.90000 32.241
55.00000 38.139
55.10000 30.977
55.20000 30.941
55.30000 55.023
55.40000 48.386
55.50000 48.119
55.60000 47.889
55.70000 46.103
55.80000 49.008
55.90000 50.996
56.00000 38.111
56.10000 30.117
56.20000 31.839
56.30000 47.288
56.40000 32.158
56.50000 49.187
56.60000 33.818
56.70000 38.970
56.80000 30.784
56.90000 53.123
57.00000 32.013
57.10000 55.031
57.20000 41.802
57.30000 45.061
57.40000 38.782
57.50000 34.256
57.60000 34.975
57.70000 34.032
57.80000 27.940
57.90000 45.864
58.00000 36.185
58.10000 35.873
58.20000 33.176
58.30000 25.109
58.40000 28.064
58.50000 53.103
58.60000 32.174
58.70000 38.617
58.80000 37.334
58.90000 38.841
59.00000 33.939
59.10000 22.862
59.20000 31.027
59.30000 37.144
59.40000 45.272
59.50000 32.128
59.60000 29.087
59.70000 30.921
59.80000 40.144
59.90000 28.876
60.00000 43.789
60.10000 29.119
60.20000 34.825
60.30000 39.854
60.40000 23.957
60.50000 28.072
60.60000 37.932
60.70000 35.143
60.80000 26.968
60.90000 34.898
61.00000 41.108
61.10000 35.001
61.20000 32.116
61.30000 43.953
61.40000 43.915
61.50000 26.854
61.60000 37.980
61.70000 43.679
61.80000 54.336
61.90000 38.004
62.00000 44.090
62.10000 63.029
62.20000 78.413
62.30000 81.886
62.40000 91.019
62.50000 84.494
62.60000 55.183
62.70000 53.183
62.80000 47.998
62.90000 40.121
63.00000 36.910
63.10000 44.870
63.20000 33.016
63.30000 37.897
63.40000 44.034
63.50000 43.014
63.60000 38.066
63.70000 34.068
63.80000 38.150
63.90000 35.247
64.00000 33.025