Folder: Master-Thesis/XRD/XRD/09-10-2025 Dep 8/XY Data (part 4)

File: BTO_Mapping_Theta2Theta_09-10-2025_001_35_-19-563_-4-158.xy
20.00000 487.878
20.17000 479.112
20.34000 502.115
20.51000 487.031
20.68000 478.648
20.85000 483.256
21.02000 496.851
21.19000 495.810
21.36000 480.509
21.53000 491.728
21.70000 515.561
21.87000 630.865
22.04000 731.085
22.21000 610.515
22.38000 530.161
22.55000 474.185
22.72000 459.600
22.89000 438.737
23.06000 456.362
23.23000 448.858
23.40000 438.934
23.57000 443.314
23.74000 434.750
23.91000 433.057
24.08000 432.385
24.25000 413.597
24.42000 428.041
24.59000 430.340
24.76000 422.167
24.93000 398.157
25.10000 416.170
25.27000 407.671
25.44000 406.884
25.61000 404.195
25.78000 406.348
25.95000 396.993
26.12000 397.762
26.29000 393.408
26.46000 395.138
26.63000 402.182
26.80000 401.443
26.97000 388.059
27.14000 392.313
27.31000 372.499
27.48000 375.225
27.65000 391.479
27.82000 412.952
27.99000 385.729
28.16000 378.901
28.33000 361.498
28.50000 359.539
28.67000 373.297
28.84000 382.316
29.01000 342.327
29.18000 362.600
29.35000 366.093
29.52000 364.329
29.69000 375.848
29.86000 414.571
30.03000 456.432
30.20000 415.173
30.37000 405.354
30.54000 389.003
30.71000 423.008
30.88000 450.544
31.05000 646.171
31.22000 1716.584
31.39000 3117.116
31.56000 1768.257
31.73000 648.421
31.90000 423.395
32.07000 374.079
32.24000 341.042
32.41000 341.417
32.58000 337.091
32.75000 335.159
32.92000 308.595
33.09000 306.703
33.26000 321.342
33.43000 319.721
33.60000 309.379
33.77000 301.247
33.94000 280.858
34.11000 286.475
34.28000 289.921
34.45000 287.823
34.62000 288.545
34.79000 290.486
34.96000 284.564
35.13000 284.892
35.30000 277.784
35.47000 281.010
35.64000 272.476
35.81000 274.367
35.98000 265.633
36.15000 267.916
36.32000 283.007
36.49000 253.395
36.66000 269.748
36.83000 264.741
37.00000 280.364
37.17000 277.148
37.34000 272.791
37.51000 258.285
37.68000 257.955
37.85000 275.423
38.02000 265.891
38.19000 296.600
38.36000 335.044
38.53000 587.228
38.70000 838.683
38.87000 543.786
39.04000 314.330
39.21000 259.575
39.38000 254.863
39.55000 255.196
39.72000 246.197
39.89000 227.818
40.06000 236.047
40.23000 235.845
40.40000 223.673
40.57000 228.049
40.74000 236.727
40.91000 229.455
41.08000 228.347
41.25000 228.764
41.42000 220.232
41.59000 216.366
41.76000 223.189
41.93000 238.155
42.10000 205.767
42.27000 211.539
42.44000 199.987
42.61000 218.301
42.78000 205.534
42.95000 217.012
43.12000 218.838
43.29000 209.478
43.46000 207.438
43.63000 192.982
43.80000 203.056
43.97000 207.499
44.14000 201.146
44.31000 215.575
44.48000 220.801
44.65000 255.486
44.82000 327.607
44.99000 416.654
45.16000 394.279
45.33000 309.540
45.50000 246.853
45.67000 215.434
45.84000 203.301
46.01000 186.249
46.18000 183.413
46.35000 182.880
46.52000 186.032
46.69000 184.371
46.86000 164.012
47.03000 185.437
47.20000 162.684
47.37000 162.474
47.54000 164.181
47.71000 171.291
47.88000 167.782
48.05000 171.807
48.22000 157.505
48.39000 164.839
48.56000 166.345
48.73000 152.185
48.90000 161.429
49.07000 161.493
49.24000 157.715
49.41000 180.041
49.58000 167.991
49.75000 161.367
49.92000 161.508
50.09000 166.744
50.26000 166.482
50.43000 190.247
50.60000 231.091
50.77000 240.617
50.94000 193.229
51.11000 161.852
51.28000 163.216
51.45000 163.441
51.62000 158.094
51.79000 138.026
51.96000 158.072
52.13000 149.964
52.30000 144.370
52.47000 139.488
52.64000 137.089
52.81000 140.620
52.98000 141.788
53.15000 157.438
53.32000 157.725
53.49000 159.719
53.66000 153.010
53.83000 151.393
54.00000 141.156
54.17000 127.275
54.34000 140.827
54.51000 146.828
54.68000 142.194
54.85000 149.901
55.02000 166.129
55.19000 157.871
55.36000 166.719
55.53000 218.265
55.70000 381.157
55.87000 536.147
56.04000 520.010
56.21000 318.476
56.38000 212.877
56.55000 172.404
56.72000 152.904
56.89000 141.025
57.06000 143.642
57.23000 127.749
57.40000 129.995
57.57000 133.625
57.74000 128.627
57.91000 126.215
58.08000 134.030
58.25000 126.720
58.42000 125.092
58.59000 119.383
58.76000 120.579
58.93000 127.833
59.10000 129.419
59.27000 134.148
59.44000 121.666
59.61000 112.911
59.78000 124.216
59.95000 121.217
60.12000 110.729
60.29000 110.302
60.46000 122.463
60.63000 123.848
60.80000 122.058
60.97000 127.828
61.14000 139.455
61.31000 118.264
61.48000 142.157
61.65000 429.166
61.82000 263.896
61.99000 143.328
62.16000 132.787
62.33000 132.428
62.50000 135.557
62.67000 145.077
62.84000 140.206
63.01000 147.768
63.18000 148.114
63.35000 134.557
63.52000 146.110
63.69000 150.813
63.86000 153.937
64.03000 155.917
64.20000 160.352
64.37000 168.534
64.54000 182.868
64.71000 185.202
64.88000 195.681
65.05000 223.554
65.22000 265.842
65.39000 371.798
65.56000 533.545
65.73000 1850.561
65.90000 3352.867
66.07000 730.876
66.24000 557.550
66.41000 971.965
66.58000 575.661
66.75000 452.629
66.92000 474.455
67.09000 506.602
67.26000 496.300
67.43000 545.691
67.60000 556.846
67.77000 606.133
67.94000 628.153
68.11000 677.367
68.28000 762.099
68.45000 893.050
68.62000 1319.992
68.79000 2651.078
68.96000 19155.232
69.13000 82060.508
69.30000 44065.371
69.47000 10158.510
69.64000 1320.488
69.81000 812.647
69.98000 622.941
70.00000 623.738

File: BTO_Mapping_Theta2Theta_09-10-2025_001_36_-29-344_-6-237.xy
20.00000 512.445
20.17000 484.604
20.34000 482.362
20.51000 480.889
20.68000 466.373
20.85000 497.853
21.02000 480.008
21.19000 489.099
21.36000 497.687
21.53000 479.024
21.70000 528.677
21.87000 640.444
22.04000 733.813
22.21000 599.244
22.38000 520.133
22.55000 469.661
22.72000 464.909
22.89000 454.154
23.06000 452.488
23.23000 451.229
23.40000 445.962
23.57000 446.519
23.74000 436.926
23.91000 436.585
24.08000 423.763
24.25000 436.500
24.42000 418.635
24.59000 445.033
24.76000 415.308
24.93000 434.089
25.10000 414.441
25.27000 415.891
25.44000 409.087
25.61000 398.828
25.78000 409.684
25.95000 402.583
26.12000 397.090
26.29000 391.731
26.46000 385.626
26.63000 404.051
26.80000 396.054
26.97000 382.457
27.14000 385.734
27.31000 383.537
27.48000 378.645
27.65000 358.584
27.82000 393.861
27.99000 375.646
28.16000 379.723
28.33000 377.126
28.50000 378.662
28.67000 375.297
28.84000 376.034
29.01000 365.242
29.18000 364.534
29.35000 362.353
29.52000 381.918
29.69000 383.359
29.86000 460.415
30.03000 515.248
30.20000 472.410
30.37000 409.416
30.54000 397.748
30.71000 406.819
30.88000 448.847
31.05000 817.273
31.22000 2923.105
31.39000 4430.749
31.56000 1863.495
31.73000 666.561
31.90000 443.829
32.07000 375.085
32.24000 349.015
32.41000 356.141
32.58000 341.360
32.75000 333.813
32.92000 323.245
33.09000 314.006
33.26000 310.453
33.43000 307.469
33.60000 310.684
33.77000 299.460
33.94000 312.043
34.11000 288.624
34.28000 286.904
34.45000 276.911
34.62000 309.077
34.79000 290.977
34.96000 311.621
35.13000 285.613
35.30000 278.301
35.47000 273.525
35.64000 265.166
35.81000 266.072
35.98000 280.651
36.15000 267.860
36.32000 257.838
36.49000 268.964
36.66000 279.443
36.83000 282.517
37.00000 276.093
37.17000 275.212
37.34000 270.122
37.51000 267.607
37.68000 273.283
37.85000 274.025
38.02000 268.992
38.19000 305.854
38.36000 371.993
38.53000 550.640
38.70000 635.097
38.87000 444.838
39.04000 298.297
39.21000 257.219
39.38000 233.795
39.55000 246.580
39.72000 243.476
39.89000 235.890
40.06000 240.662
40.23000 231.314
40.40000 227.046
40.57000 221.152
40.74000 226.576
40.91000 228.767
41.08000 224.366
41.25000 229.344
41.42000 220.093
41.59000 209.946
41.76000 220.551
41.93000 208.679
42.10000 225.750
42.27000 205.899
42.44000 205.771
42.61000 208.251
42.78000 217.074
42.95000 213.084
43.12000 215.051
43.29000 192.639
43.46000 212.040
43.63000 206.775
43.80000 193.963
43.97000 193.730
44.14000 214.344
44.31000 209.806
44.48000 240.258
44.65000 290.668
44.82000 397.334
44.99000 428.360
45.16000 357.933
45.33000 294.071
45.50000 243.541
45.67000 209.270
45.84000 196.158
46.01000 199.602
46.18000 178.967
46.35000 175.397
46.52000 179.113
46.69000 169.437
46.86000 162.268
47.03000 163.994
47.20000 192.230
47.37000 168.293
47.54000 170.300
47.71000 176.249
47.88000 165.271
48.05000 167.156
48.22000 180.997
48.39000 159.341
48.56000 165.942
48.73000 171.738
48.90000 167.069
49.07000 146.230
49.24000 154.642
49.41000 156.983
49.58000 159.401
49.75000 178.353
49.92000 157.145
50.09000 166.264
50.26000 179.655
50.43000 221.607
50.60000 255.843
50.77000 234.099
50.94000 189.532
51.11000 174.948
51.28000 178.152
51.45000 156.911
51.62000 143.671
51.79000 161.234
51.96000 157.668
52.13000 153.728
52.30000 142.309
52.47000 150.670
52.64000 146.725
52.81000 150.971
52.98000 153.652
53.15000 158.280
53.32000 153.726
53.49000 160.876
53.66000 150.976
53.83000 150.940
54.00000 151.262
54.17000 137.269
54.34000 130.290
54.51000 148.411
54.68000 145.153
54.85000 140.509
55.02000 151.893
55.19000 162.876
55.36000 187.293
55.53000 266.743
55.70000 423.897
55.87000 527.908
56.04000 394.275
56.21000 266.149
56.38000 195.935
56.55000 165.152
56.72000 150.975
56.89000 141.179
57.06000 129.052
57.23000 137.380
57.40000 131.304
57.57000 132.468
57.74000 134.536
57.91000 125.765
58.08000 128.312
58.25000 112.225
58.42000 124.145
58.59000 126.808
58.76000 132.856
58.93000 131.889
59.10000 123.943
59.27000 121.294
59.44000 132.331
59.61000 120.694
59.78000 124.220
59.95000 119.985
60.12000 119.403
60.29000 126.862
60.46000 122.053
60.63000 124.009
60.80000 125.532
60.97000 123.622
61.14000 120.033
61.31000 128.448
61.48000 142.088
61.65000 420.723
61.82000 262.827
61.99000 137.403
62.16000 135.157
62.33000 148.383
62.50000 143.676
62.67000 137.262
62.84000 145.055
63.01000 127.010
63.18000 149.648
63.35000 141.715
63.52000 139.390
63.69000 148.575
63.86000 155.761
64.03000 156.443
64.20000 161.222
64.37000 176.860
64.54000 175.043
64.71000 184.430
64.88000 199.416
65.05000 242.211
65.22000 342.806
65.39000 505.551
65.56000 598.713
65.73000 1758.674
65.90000 3348.072
66.07000 765.454
66.24000 569.025
66.41000 965.952
66.58000 585.753
66.75000 453.891
66.92000 471.388
67.09000 480.536
67.26000 521.474
67.43000 538.419
67.60000 568.406
67.77000 587.141
67.94000 648.497
68.11000 684.893
68.28000 754.150
68.45000 858.701
68.62000 1286.394
68.79000 2562.183
68.96000 17315.629
69.13000 80981.828
69.30000 44389.738
69.47000 11125.323
69.64000 1298.988
69.81000 789.761
69.98000 617.263
70.00000 611.616

File: BTO_Mapping_Theta2Theta_09-10-2025_001_41_-32-361_-23-511.xy
20.00000 477.615
20.17000 474.900
20.34000 484.790
20.51000 496.878
20.68000 488.725
20.85000 484.468
21.02000 500.821
21.19000 500.362
21.36000 475.957
21.53000 490.637
21.70000 540.748
21.87000 680.355
22.04000 749.069
22.21000 628.891
22.38000 511.879
22.55000 492.542
22.72000 446.434
22.89000 446.575
23.06000 454.800
23.23000 448.625
23.40000 431.636
23.57000 431.723
23.74000 441.501
23.91000 422.253
24.08000 434.670
24.25000 423.506
24.42000 421.201
24.59000 422.484
24.76000 434.447
24.93000 430.820
25.10000 422.650
25.27000 417.793
25.44000 428.839
25.61000 429.154
25.78000 406.520
25.95000 398.285
26.12000 383.469
26.29000 388.772
26.46000 396.815
26.63000 396.157
26.80000 400.813
26.97000 390.667
27.14000 398.925
27.31000 393.034
27.48000 389.049
27.65000 375.899
27.82000 372.535
27.99000 378.622
28.16000 393.034
28.33000 392.105
28.50000 386.517
28.67000 398.477
28.84000 378.102
29.01000 384.530
29.18000 371.736
29.35000 366.373
29.52000 386.429
29.69000 393.449
29.86000 571.627
30.03000 629.040
30.20000 512.668
30.37000 468.451
30.54000 440.007
30.71000 482.340
30.88000 541.636
31.05000 1341.886
31.22000 6278.047
31.39000 7173.762
31.56000 1859.480
31.73000 640.518
31.90000 437.507
32.07000 389.555
32.24000 373.351
32.41000 359.466
32.58000 363.557
32.75000 338.300
32.92000 330.974
33.09000 327.595
33.26000 321.672
33.43000 307.997
33.60000 311.128
33.77000 317.100
33.94000 301.337
34.11000 302.933
34.28000 285.823
34.45000 292.860
34.62000 286.393
34.79000 288.925
34.96000 305.193
35.13000 287.112
35.30000 278.784
35.47000 279.975
35.64000 269.741
35.81000 266.977
35.98000 280.400
36.15000 284.267
36.32000 273.931
36.49000 270.042
36.66000 275.630
36.83000 278.415
37.00000 294.878
37.17000 288.546
37.34000 275.947
37.51000 268.973
37.68000 260.288
37.85000 262.188
38.02000 288.088
38.19000 287.692
38.36000 343.280
38.53000 463.522
38.70000 458.272
38.87000 333.969
39.04000 276.817
39.21000 243.233
39.38000 251.337
39.55000 241.923
39.72000 233.398
39.89000 230.565
40.06000 228.816
40.23000 235.184
40.40000 228.179
40.57000 235.193
40.74000 226.943
40.91000 224.154
41.08000 220.028
41.25000 227.494
41.42000 202.433
41.59000 223.641
41.76000 211.752
41.93000 206.813
42.10000 208.106
42.27000 205.487
42.44000 204.091
42.61000 193.250
42.78000 207.006
42.95000 208.480
43.12000 209.814
43.29000 207.830
43.46000 205.759
43.63000 221.779
43.80000 205.216
43.97000 213.091
44.14000 217.327
44.31000 218.589
44.48000 236.089
44.65000 331.397
44.82000 464.813
44.99000 439.685
45.16000 365.102
45.33000 302.890
45.50000 256.624
45.67000 236.920
45.84000 214.221
46.01000 205.001
46.18000 191.495
46.35000 180.779
46.52000 176.905
46.69000 165.672
46.86000 169.502
47.03000 171.599
47.20000 181.393
47.37000 173.278
47.54000 164.457
47.71000 170.965
47.88000 170.808
48.05000 178.568
48.22000 184.698
48.39000 157.390
48.56000 155.605
48.73000 157.552
48.90000 167.708
49.07000 172.417
49.24000 162.324
49.41000 182.664
49.58000 155.781
49.75000 160.825
49.92000 171.993
50.09000 179.603
50.26000 194.334
50.43000 239.399
50.60000 268.177
50.77000 224.853
50.94000 193.111
51.11000 162.268
51.28000 153.891
51.45000 150.558
51.62000 152.509
51.79000 153.599
51.96000 147.476
52.13000 151.700
52.30000 136.607
52.47000 148.997
52.64000 140.965
52.81000 143.717
52.98000 159.231
53.15000 157.347
53.32000 153.063
53.49000 145.228
53.66000 149.896
53.83000 143.645
54.00000 149.362
54.17000 147.004
54.34000 137.642
54.51000 129.135
54.68000 150.413
54.85000 146.656
55.02000 145.133
55.19000 154.739
55.36000 204.208
55.53000 323.428
55.70000 511.781
55.87000 426.184
56.04000 284.428
56.21000 212.412
56.38000 178.891
56.55000 158.299
56.72000 139.427
56.89000 133.662
57.06000 128.546
57.23000 129.564
57.40000 121.706
57.57000 130.278
57.74000 123.265
57.91000 128.192
58.08000 116.466
58.25000 128.120
58.42000 133.176
58.59000 117.811
58.76000 123.863
58.93000 125.988
59.10000 123.570
59.27000 125.067
59.44000 124.838
59.61000 117.319
59.78000 120.104
59.95000 125.945
60.12000 117.376
60.29000 117.200
60.46000 126.689
60.63000 119.693
60.80000 124.098
60.97000 125.824
61.14000 123.901
61.31000 124.935
61.48000 136.603
61.65000 418.049
61.82000 272.491
61.99000 138.782
62.16000 144.588
62.33000 151.574
62.50000 143.938
62.67000 142.813
62.84000 145.638
63.01000 146.153
63.18000 142.201
63.35000 146.911
63.52000 153.518
63.69000 150.027
63.86000 145.724
64.03000 156.799
64.20000 167.048
64.37000 169.283
64.54000 176.101
64.71000 192.337
64.88000 224.837
65.05000 328.954
65.22000 602.479
65.39000 787.728
65.56000 670.895
65.73000 1634.913
65.90000 3289.811
66.07000 787.041
66.24000 527.228
66.41000 937.421
66.58000 581.768
66.75000 454.457
66.92000 458.054
67.09000 471.757
67.26000 502.782
67.43000 522.752
67.60000 546.466
67.77000 571.718
67.94000 634.893
68.11000 656.924
68.28000 741.645
68.45000 848.397
68.62000 1194.413
68.79000 2438.776
68.96000 14567.667
69.13000 78743.391
69.30000 45144.059
69.47000 12450.878
69.64000 1329.235
69.81000 795.660
69.98000 596.100
70.00000 580.161

File: BTO_Mapping_Theta2Theta_09-10-2025_001_43_-10-000_-17-321.xy
20.00000 497.878
20.17000 475.796
20.34000 488.832
20.51000 488.025
20.68000 477.790
20.85000 475.678
21.02000 459.938
21.19000 489.985
21.36000 455.033
21.53000 480.618
21.70000 517.046
21.87000 595.827
22.04000 704.129
22.21000 625.198
22.38000 521.525
22.55000 485.284
22.72000 453.336
22.89000 464.261
23.06000 449.993
23.23000 438.412
23.40000 439.890
23.57000 440.850
23.74000 425.643
23.91000 415.168
24.08000 435.584
24.25000 418.991
24.42000 426.273
24.59000 417.504
24.76000 411.722
24.93000 419.612
25.10000 419.047
25.27000 424.144
25.44000 398.268
25.61000 403.240
25.78000 403.746
25.95000 400.621
26.12000 373.273
26.29000 409.505
26.46000 404.889
26.63000 387.033
26.80000 402.654
26.97000 392.289
27.14000 364.562
27.31000 384.917
27.48000 380.350
27.65000 380.622
27.82000 375.453
27.99000 374.633
28.16000 380.177
28.33000 373.885
28.50000 362.823
28.67000 369.765
28.84000 354.518
29.01000 365.636
29.18000 360.322
29.35000 348.960
29.52000 372.356
29.69000 370.333
29.86000 401.348
30.03000 449.502
30.20000 434.787
30.37000 402.964
30.54000 427.305
30.71000 424.397
30.88000 436.157
31.05000 634.158
31.22000 1630.315
31.39000 2996.597
31.56000 1708.903
31.73000 682.521
31.90000 420.420
32.07000 376.839
32.24000 355.107
32.41000 335.059
32.58000 340.080
32.75000 324.288
32.92000 315.510
33.09000 301.978
33.26000 318.250
33.43000 301.135
33.60000 313.040
33.77000 293.328
33.94000 297.474
34.11000 304.707
34.28000 288.934
34.45000 298.888
34.62000 277.555
34.79000 296.656
34.96000 274.331
35.13000 280.112
35.30000 266.476
35.47000 273.666
35.64000 273.674
35.81000 272.867
35.98000 274.818
36.15000 263.061
36.32000 262.048
36.49000 267.194
36.66000 261.019
36.83000 269.351
37.00000 291.647
37.17000 260.460
37.34000 264.514
37.51000 280.496
37.68000 267.258
37.85000 276.592
38.02000 246.378
38.19000 303.704
38.36000 331.434
38.53000 589.955
38.70000 895.268
38.87000 598.381
39.04000 328.869
39.21000 292.168
39.38000 255.752
39.55000 246.398
39.72000 238.866
39.89000 232.220
40.06000 234.745
40.23000 236.109
40.40000 219.459
40.57000 233.650
40.74000 215.839
40.91000 223.929
41.08000 220.207
41.25000 218.658
41.42000 213.451
41.59000 214.360
41.76000 220.015
41.93000 213.309
42.10000 203.901
42.27000 211.843
42.44000 204.863
42.61000 204.630
42.78000 220.063
42.95000 210.178
43.12000 207.508
43.29000 202.840
43.46000 205.946
43.63000 197.330
43.80000 188.110
43.97000 199.161
44.14000 212.344
44.31000 202.860
44.48000 214.052
44.65000 243.509
44.82000 309.307
44.99000 406.875
45.16000 391.457
45.33000 312.158
45.50000 246.953
45.67000 230.904
45.84000 206.892
46.01000 192.074
46.18000 180.489
46.35000 181.225
46.52000 178.807
46.69000 186.736
46.86000 172.385
47.03000 160.927
47.20000 172.571
47.37000 173.568
47.54000 170.735
47.71000 165.842
47.88000 149.528
48.05000 161.169
48.22000 163.250
48.39000 171.665
48.56000 170.079
48.73000 156.241
48.90000 161.531
49.07000 156.789
49.24000 154.885
49.41000 158.933
49.58000 157.891
49.75000 173.500
49.92000 166.224
50.09000 156.227
50.26000 171.831
50.43000 193.490
50.60000 221.420
50.77000 242.153
50.94000 211.965
51.11000 179.748
51.28000 163.826
51.45000 159.128
51.62000 157.753
51.79000 145.896
51.96000 142.781
52.13000 150.860
52.30000 138.754
52.47000 157.841
52.64000 152.349
52.81000 141.790
52.98000 141.547
53.15000 136.718
53.32000 151.800
53.49000 152.747
53.66000 151.148
53.83000 137.835
54.00000 141.065
54.17000 137.594
54.34000 144.102
54.51000 138.987
54.68000 137.476
54.85000 144.309
55.02000 146.574
55.19000 154.693
55.36000 172.032
55.53000 205.729
55.70000 317.177
55.87000 545.576
56.04000 515.740
56.21000 335.963
56.38000 225.429
56.55000 164.358
56.72000 148.780
56.89000 141.461
57.06000 142.774
57.23000 123.187
57.40000 128.468
57.57000 125.944
57.74000 126.580
57.91000 126.640
58.08000 127.060
58.25000 128.744
58.42000 119.298
58.59000 124.126
58.76000 119.681
58.93000 117.976
59.10000 121.406
59.27000 109.450
59.44000 116.205
59.61000 127.555
59.78000 123.400
59.95000 112.159
60.12000 117.403
60.29000 124.613
60.46000 115.116
60.63000 123.967
60.80000 117.140
60.97000 119.837
61.14000 122.196
61.31000 127.446
61.48000 140.823
61.65000 447.610
61.82000 248.806
61.99000 154.825
62.16000 135.146
62.33000 142.122
62.50000 137.553
62.67000 141.534
62.84000 143.526
63.01000 135.026
63.18000 149.090
63.35000 150.515
63.52000 144.237
63.69000 148.829
63.86000 160.701
64.03000 152.111
64.20000 164.260
64.37000 169.183
64.54000 183.218
64.71000 195.394
64.88000 207.855
65.05000 234.465
65.22000 275.970
65.39000 362.515
65.56000 548.231
65.73000 1901.217
65.90000 3385.841
66.07000 758.797
66.24000 586.959
66.41000 990.267
66.58000 570.897
66.75000 476.430
66.92000 470.532
67.09000 489.611
67.26000 507.550
67.43000 530.982
67.60000 581.391
67.77000 594.255
67.94000 626.376
68.11000 712.002
68.28000 765.574
68.45000 893.355
68.62000 1364.318
68.79000 2701.857
68.96000 19774.377
69.13000 83543.195
69.30000 44895.285
69.47000 10417.868
69.64000 1348.437
69.81000 819.080
69.98000 650.117
70.00000 629.180

File: BTO_Mapping_Theta2Theta_09-10-2025_001_44_-15-000_-25-981.xy
20.00000 497.185
20.17000 483.941
20.34000 475.944
20.51000 490.383
20.68000 489.899
20.85000 491.025
21.02000 501.189
21.19000 497.977
21.36000 505.720
21.53000 499.337
21.70000 529.075
21.87000 603.190
22.04000 703.979
22.21000 614.540
22.38000 496.109
22.55000 465.396
22.72000 454.045
22.89000 474.349
23.06000 438.230
23.23000 443.897
23.40000 446.326
23.57000 435.906
23.74000 436.902
23.91000 425.731
24.08000 414.202
24.25000 448.394
24.42000 431.688
24.59000 415.010
24.76000 412.274
24.93000 414.125
25.10000 415.445
25.27000 399.279
25.44000 396.014
25.61000 397.735
25.78000 409.874
25.95000 401.134
26.12000 399.922
26.29000 385.214
26.46000 403.471
26.63000 390.600
26.80000 408.511
26.97000 384.451
27.14000 375.559
27.31000 377.729
27.48000 379.608
27.65000 377.788
27.82000 380.147
27.99000 381.453
28.16000 379.558
28.33000 374.421
28.50000 377.132
28.67000 374.316
28.84000 359.687
29.01000 366.866
29.18000 356.258
29.35000 360.390
29.52000 366.428
29.69000 362.290
29.86000 395.576
30.03000 474.951
30.20000 448.391
30.37000 410.628
30.54000 381.884
30.71000 408.572
30.88000 457.220
31.05000 648.304
31.22000 1772.628
31.39000 3312.110
31.56000 1905.874
31.73000 696.289
31.90000 441.325
32.07000 369.787
32.24000 353.110
32.41000 349.058
32.58000 335.147
32.75000 329.493
32.92000 324.814
33.09000 312.226
33.26000 310.182
33.43000 300.913
33.60000 312.234
33.77000 295.672
33.94000 297.435
34.11000 297.729
34.28000 273.781
34.45000 299.336
34.62000 284.788
34.79000 282.950
34.96000 282.996
35.13000 267.402
35.30000 261.249
35.47000 285.187
35.64000 267.671
35.81000 272.722
35.98000 273.699
36.15000 272.976
36.32000 269.924
36.49000 284.202
36.66000 280.015
36.83000 273.642
37.00000 274.720
37.17000 265.170
37.34000 264.772
37.51000 263.923
37.68000 272.757
37.85000 271.643
38.02000 283.150
38.19000 293.719
38.36000 344.055
38.53000 561.210
38.70000 798.737
38.87000 548.244
39.04000 313.629
39.21000 265.460
39.38000 267.983
39.55000 257.994
39.72000 248.992
39.89000 245.488
40.06000 232.508
40.23000 237.364
40.40000 232.305
40.57000 228.671
40.74000 232.598
40.91000 223.741
41.08000 229.850
41.25000 218.059
41.42000 211.187
41.59000 211.714
41.76000 208.584
41.93000 202.004
42.10000 201.914
42.27000 210.162
42.44000 208.183
42.61000 213.736
42.78000 208.154
42.95000 207.070
43.12000 207.715
43.29000 209.767
43.46000 209.906
43.63000 197.474
43.80000 198.073
43.97000 215.021
44.14000 215.872
44.31000 211.207
44.48000 221.133
44.65000 256.872
44.82000 329.772
44.99000 418.204
45.16000 381.933
45.33000 296.068
45.50000 259.207
45.67000 220.481
45.84000 197.803
46.01000 190.648
46.18000 184.545
46.35000 186.569
46.52000 174.653
46.69000 173.599
46.86000 170.034
47.03000 166.112
47.20000 173.232
47.37000 167.954
47.54000 163.073
47.71000 159.520
47.88000 162.922
48.05000 164.902
48.22000 152.400
48.39000 166.534
48.56000 165.480
48.73000 167.632
48.90000 148.594
49.07000 161.879
49.24000 165.007
49.41000 161.786
49.58000 158.936
49.75000 154.774
49.92000 164.667
50.09000 164.459
50.26000 171.481
50.43000 188.682
50.60000 231.384
50.77000 248.163
50.94000 201.409
51.11000 175.514
51.28000 176.409
51.45000 157.641
51.62000 151.377
51.79000 142.243
51.96000 147.769
52.13000 141.864
52.30000 152.429
52.47000 135.999
52.64000 142.002
52.81000 145.595
52.98000 153.498
53.15000 142.139
53.32000 155.859
53.49000 156.532
53.66000 145.479
53.83000 138.310
54.00000 144.685
54.17000 134.452
54.34000 146.576
54.51000 146.238
54.68000 148.732
54.85000 137.179
55.02000 142.334
55.19000 152.174
55.36000 168.797
55.53000 219.288
55.70000 359.327
55.87000 542.406
56.04000 506.447
56.21000 321.272
56.38000 219.480
56.55000 166.694
56.72000 153.197
56.89000 133.569
57.06000 129.693
57.23000 136.156
57.40000 136.044
57.57000 131.919
57.74000 134.085
57.91000 122.267
58.08000 123.401
58.25000 124.076
58.42000 126.890
58.59000 119.134
58.76000 116.740
58.93000 120.643
59.10000 122.502
59.27000 122.776
59.44000 123.186
59.61000 123.141
59.78000 122.130
59.95000 118.843
60.12000 110.438
60.29000 120.886
60.46000 117.648
60.63000 118.044
60.80000 133.008
60.97000 126.356
61.14000 126.354
61.31000 130.072
61.48000 146.732
61.65000 418.949
61.82000 252.891
61.99000 141.368
62.16000 143.513
62.33000 144.357
62.50000 137.994
62.67000 140.751
62.84000 132.063
63.01000 142.485
63.18000 152.700
63.35000 146.910
63.52000 150.665
63.69000 148.830
63.86000 156.271
64.03000 158.878
64.20000 159.174
64.37000 167.140
64.54000 158.057
64.71000 189.358
64.88000 199.398
65.05000 231.741
65.22000 279.020
65.39000 383.409
65.56000 547.883
65.73000 1715.270
65.90000 3263.414
66.07000 760.777
66.24000 556.094
66.41000 939.081
66.58000 565.085
66.75000 448.450
66.92000 457.362
67.09000 486.659
67.26000 508.917
67.43000 570.318
67.60000 553.753
67.77000 587.433
67.94000 624.510
68.11000 662.635
68.28000 735.425
68.45000 860.894
68.62000 1295.006
68.79000 2593.813
68.96000 18012.395
69.13000 80462.617
69.30000 44094.266
69.47000 10654.404
69.64000 1310.628
69.81000 801.619
69.98000 617.135
70.00000 589.903