Folder: Master-Thesis/XRD/XRD/09-10-2025 Dep 8/XY Data (part 6)

File: BTO_Mapping_Theta2Theta_09-10-2025_001_51_6-180_-19-021.xy
20.00000 496.528
20.17000 489.395
20.34000 480.773
20.51000 480.912
20.68000 485.740
20.85000 485.554
21.02000 493.660
21.19000 483.846
21.36000 478.905
21.53000 490.737
21.70000 491.627
21.87000 540.378
22.04000 650.899
22.21000 620.829
22.38000 539.290
22.55000 479.685
22.72000 459.898
22.89000 456.794
23.06000 442.147
23.23000 431.807
23.40000 427.121
23.57000 426.462
23.74000 431.293
23.91000 432.708
24.08000 431.487
24.25000 421.710
24.42000 432.749
24.59000 444.268
24.76000 417.229
24.93000 410.560
25.10000 417.563
25.27000 416.100
25.44000 391.246
25.61000 407.097
25.78000 396.717
25.95000 386.830
26.12000 392.798
26.29000 394.418
26.46000 386.836
26.63000 397.901
26.80000 390.271
26.97000 379.491
27.14000 398.737
27.31000 374.668
27.48000 381.564
27.65000 405.802
27.82000 377.554
27.99000 365.766
28.16000 379.619
28.33000 361.429
28.50000 369.968
28.67000 366.182
28.84000 361.483
29.01000 369.250
29.18000 368.334
29.35000 368.101
29.52000 374.287
29.69000 370.353
29.86000 407.127
30.03000 470.911
30.20000 473.135
30.37000 402.748
30.54000 413.716
30.71000 409.495
30.88000 465.860
31.05000 631.106
31.22000 1564.710
31.39000 3139.352
31.56000 1993.421
31.73000 749.346
31.90000 448.677
32.07000 376.030
32.24000 335.858
32.41000 342.869
32.58000 341.570
32.75000 326.676
32.92000 321.922
33.09000 323.299
33.26000 311.768
33.43000 300.371
33.60000 301.115
33.77000 313.086
33.94000 300.418
34.11000 294.562
34.28000 277.830
34.45000 294.170
34.62000 294.969
34.79000 279.053
34.96000 290.572
35.13000 278.879
35.30000 288.715
35.47000 262.835
35.64000 269.746
35.81000 272.600
35.98000 268.713
36.15000 260.586
36.32000 268.968
36.49000 268.653
36.66000 249.157
36.83000 269.846
37.00000 292.657
37.17000 293.034
37.34000 268.997
37.51000 254.315
37.68000 254.031
37.85000 255.591
38.02000 266.022
38.19000 280.126
38.36000 323.910
38.53000 554.844
38.70000 1071.439
38.87000 786.238
39.04000 342.678
39.21000 270.785
39.38000 252.522
39.55000 245.161
39.72000 235.811
39.89000 239.101
40.06000 239.806
40.23000 239.473
40.40000 222.967
40.57000 222.440
40.74000 225.070
40.91000 231.480
41.08000 221.693
41.25000 203.483
41.42000 207.490
41.59000 215.881
41.76000 215.234
41.93000 214.306
42.10000 197.052
42.27000 205.276
42.44000 206.789
42.61000 202.469
42.78000 203.172
42.95000 210.784
43.12000 200.782
43.29000 210.100
43.46000 203.838
43.63000 190.463
43.80000 192.719
43.97000 198.901
44.14000 194.659
44.31000 191.328
44.48000 203.247
44.65000 204.616
44.82000 229.980
44.99000 286.262
45.16000 331.721
45.33000 316.429
45.50000 254.198
45.67000 225.632
45.84000 204.412
46.01000 194.407
46.18000 186.731
46.35000 178.292
46.52000 184.973
46.69000 176.065
46.86000 181.334
47.03000 175.707
47.20000 163.457
47.37000 164.013
47.54000 167.952
47.71000 164.198
47.88000 167.488
48.05000 157.165
48.22000 158.506
48.39000 158.909
48.56000 163.358
48.73000 165.725
48.90000 155.618
49.07000 166.883
49.24000 158.378
49.41000 138.892
49.58000 156.260
49.75000 152.693
49.92000 149.757
50.09000 153.833
50.26000 153.562
50.43000 181.048
50.60000 204.786
50.77000 239.486
50.94000 211.789
51.11000 178.698
51.28000 162.622
51.45000 153.851
51.62000 151.561
51.79000 150.769
51.96000 150.121
52.13000 147.946
52.30000 144.907
52.47000 136.202
52.64000 148.481
52.81000 151.515
52.98000 135.794
53.15000 140.303
53.32000 154.883
53.49000 155.674
53.66000 150.038
53.83000 136.878
54.00000 139.150
54.17000 134.953
54.34000 125.762
54.51000 140.586
54.68000 137.986
54.85000 142.625
55.02000 131.219
55.19000 140.219
55.36000 163.372
55.53000 180.104
55.70000 260.595
55.87000 477.979
56.04000 548.927
56.21000 352.105
56.38000 219.452
56.55000 174.129
56.72000 148.045
56.89000 135.759
57.06000 139.695
57.23000 143.849
57.40000 132.707
57.57000 133.768
57.74000 120.350
57.91000 127.772
58.08000 116.724
58.25000 122.577
58.42000 126.411
58.59000 116.144
58.76000 115.045
58.93000 117.735
59.10000 114.859
59.27000 118.546
59.44000 116.446
59.61000 114.128
59.78000 120.880
59.95000 120.719
60.12000 112.647
60.29000 122.638
60.46000 119.774
60.63000 114.134
60.80000 123.027
60.97000 121.473
61.14000 114.544
61.31000 118.536
61.48000 146.059
61.65000 346.766
61.82000 212.255
61.99000 129.703
62.16000 126.887
62.33000 136.337
62.50000 140.370
62.67000 131.086
62.84000 147.176
63.01000 152.856
63.18000 138.218
63.35000 142.289
63.52000 151.802
63.69000 141.599
63.86000 141.577
64.03000 153.310
64.20000 145.269
64.37000 166.855
64.54000 170.918
64.71000 188.887
64.88000 196.282
65.05000 205.054
65.22000 250.095
65.39000 346.923
65.56000 499.233
65.73000 1477.239
65.90000 2598.716
66.07000 624.126
66.24000 495.395
66.41000 789.438
66.58000 500.022
66.75000 391.604
66.92000 417.717
67.09000 433.611
67.26000 450.931
67.43000 484.599
67.60000 522.452
67.77000 529.749
67.94000 549.376
68.11000 615.318
68.28000 684.600
68.45000 757.701
68.62000 1132.513
68.79000 2164.358
68.96000 14695.515
69.13000 63460.723
69.30000 34261.363
69.47000 7815.326
69.64000 1136.321
69.81000 707.919
69.98000 575.286
70.00000 568.162

File: BTO_Mapping_Theta2Theta_09-10-2025_001_52_9-271_-28-532.xy
20.00000 490.920
20.17000 487.854
20.34000 481.903
20.51000 482.592
20.68000 479.936
20.85000 489.883
21.02000 479.170
21.19000 466.229
21.36000 468.798
21.53000 471.509
21.70000 469.093
21.87000 543.284
22.04000 632.632
22.21000 620.711
22.38000 525.153
22.55000 481.758
22.72000 446.853
22.89000 437.844
23.06000 438.835
23.23000 449.663
23.40000 446.416
23.57000 449.782
23.74000 441.823
23.91000 432.683
24.08000 419.272
24.25000 423.953
24.42000 440.779
24.59000 407.902
24.76000 420.292
24.93000 412.681
25.10000 409.113
25.27000 400.378
25.44000 420.866
25.61000 415.840
25.78000 404.212
25.95000 408.290
26.12000 400.533
26.29000 368.962
26.46000 384.779
26.63000 403.571
26.80000 399.590
26.97000 405.374
27.14000 363.869
27.31000 368.976
27.48000 374.108
27.65000 377.195
27.82000 377.491
27.99000 377.276
28.16000 391.558
28.33000 378.218
28.50000 366.729
28.67000 361.751
28.84000 358.486
29.01000 380.553
29.18000 355.491
29.35000 377.744
29.52000 375.988
29.69000 380.101
29.86000 396.262
30.03000 467.163
30.20000 438.280
30.37000 409.297
30.54000 413.070
30.71000 417.113
30.88000 452.121
31.05000 585.599
31.22000 1452.588
31.39000 3097.872
31.56000 2027.382
31.73000 788.784
31.90000 483.839
32.07000 362.420
32.24000 358.373
32.41000 335.061
32.58000 325.529
32.75000 318.176
32.92000 309.941
33.09000 308.671
33.26000 310.524
33.43000 293.530
33.60000 315.387
33.77000 299.076
33.94000 294.369
34.11000 286.695
34.28000 299.106
34.45000 291.002
34.62000 282.534
34.79000 274.761
34.96000 282.812
35.13000 266.106
35.30000 267.821
35.47000 279.969
35.64000 249.593
35.81000 267.002
35.98000 267.432
36.15000 259.223
36.32000 261.450
36.49000 268.265
36.66000 260.675
36.83000 275.492
37.00000 283.802
37.17000 270.970
37.34000 272.917
37.51000 270.548
37.68000 263.716
37.85000 263.660
38.02000 257.233
38.19000 267.516
38.36000 319.161
38.53000 527.744
38.70000 1060.010
38.87000 823.936
39.04000 383.560
39.21000 265.582
39.38000 257.894
39.55000 247.502
39.72000 220.441
39.89000 230.625
40.06000 214.452
40.23000 237.376
40.40000 225.244
40.57000 228.400
40.74000 212.131
40.91000 214.155
41.08000 202.059
41.25000 217.186
41.42000 210.833
41.59000 216.038
41.76000 219.782
41.93000 217.564
42.10000 193.672
42.27000 194.920
42.44000 191.348
42.61000 192.606
42.78000 204.237
42.95000 201.324
43.12000 203.233
43.29000 202.449
43.46000 188.308
43.63000 201.756
43.80000 200.938
43.97000 203.305
44.14000 202.085
44.31000 200.814
44.48000 196.598
44.65000 210.818
44.82000 224.751
44.99000 277.215
45.16000 331.192
45.33000 314.160
45.50000 251.286
45.67000 217.477
45.84000 216.071
46.01000 193.113
46.18000 179.350
46.35000 181.648
46.52000 178.792
46.69000 182.621
46.86000 173.399
47.03000 170.120
47.20000 174.263
47.37000 159.382
47.54000 165.381
47.71000 171.247
47.88000 165.306
48.05000 176.309
48.22000 181.453
48.39000 174.959
48.56000 162.349
48.73000 161.908
48.90000 155.072
49.07000 168.662
49.24000 155.394
49.41000 156.130
49.58000 168.190
49.75000 156.441
49.92000 161.469
50.09000 148.763
50.26000 168.777
50.43000 171.314
50.60000 206.533
50.77000 233.560
50.94000 214.310
51.11000 171.543
51.28000 165.760
51.45000 146.706
51.62000 148.622
51.79000 147.438
51.96000 148.346
52.13000 136.686
52.30000 142.127
52.47000 140.572
52.64000 145.878
52.81000 133.589
52.98000 138.696
53.15000 150.081
53.32000 147.172
53.49000 164.007
53.66000 140.307
53.83000 142.611
54.00000 149.888
54.17000 142.541
54.34000 140.753
54.51000 145.028
54.68000 139.510
54.85000 143.790
55.02000 151.193
55.19000 145.132
55.36000 165.407
55.53000 166.691
55.70000 250.465
55.87000 449.659
56.04000 555.613
56.21000 383.416
56.38000 223.623
56.55000 179.189
56.72000 147.388
56.89000 144.987
57.06000 135.456
57.23000 128.640
57.40000 125.535
57.57000 130.185
57.74000 121.820
57.91000 121.604
58.08000 117.808
58.25000 125.233
58.42000 126.617
58.59000 120.155
58.76000 123.333
58.93000 129.462
59.10000 115.980
59.27000 117.116
59.44000 116.656
59.61000 126.138
59.78000 119.657
59.95000 122.002
60.12000 124.957
60.29000 114.576
60.46000 114.606
60.63000 125.559
60.80000 113.036
60.97000 110.324
61.14000 130.875
61.31000 120.318
61.48000 131.118
61.65000 335.580
61.82000 227.125
61.99000 137.580
62.16000 130.867
62.33000 138.075
62.50000 131.721
62.67000 136.490
62.84000 142.879
63.01000 133.438
63.18000 128.013
63.35000 140.743
63.52000 144.518
63.69000 142.526
63.86000 146.157
64.03000 151.203
64.20000 155.433
64.37000 160.855
64.54000 176.365
64.71000 181.706
64.88000 192.865
65.05000 206.444
65.22000 244.347
65.39000 329.921
65.56000 497.998
65.73000 1453.401
65.90000 2657.708
66.07000 621.964
66.24000 483.140
66.41000 797.097
66.58000 496.290
66.75000 412.939
66.92000 414.946
67.09000 437.916
67.26000 459.634
67.43000 480.870
67.60000 486.774
67.77000 506.914
67.94000 568.135
68.11000 602.155
68.28000 665.852
68.45000 777.653
68.62000 1116.109
68.79000 2111.242
68.96000 13572.352
69.13000 62805.891
69.30000 34021.348
69.47000 8136.159
69.64000 1146.155
69.81000 709.396
69.98000 574.049
70.00000 558.340

File: BTO_Mapping_Theta2Theta_09-10-2025_001_54_6-691_-7-431.xy
20.00000 469.441
20.17000 504.231
20.34000 495.801
20.51000 475.941
20.68000 492.950
20.85000 461.711
21.02000 489.028
21.19000 508.599
21.36000 454.053
21.53000 487.123
21.70000 461.701
21.87000 550.236
22.04000 623.635
22.21000 627.484
22.38000 528.648
22.55000 468.021
22.72000 444.495
22.89000 447.049
23.06000 461.667
23.23000 436.954
23.40000 432.124
23.57000 437.906
23.74000 429.254
23.91000 425.698
24.08000 414.663
24.25000 413.394
24.42000 431.791
24.59000 398.274
24.76000 429.186
24.93000 408.465
25.10000 402.500
25.27000 427.282
25.44000 403.970
25.61000 406.715
25.78000 402.478
25.95000 400.033
26.12000 399.628
26.29000 396.056
26.46000 385.653
26.63000 389.189
26.80000 385.958
26.97000 388.532
27.14000 381.553
27.31000 385.132
27.48000 379.042
27.65000 379.364
27.82000 380.393
27.99000 372.538
28.16000 363.840
28.33000 391.890
28.50000 371.092
28.67000 379.368
28.84000 352.158
29.01000 370.438
29.18000 364.577
29.35000 369.013
29.52000 369.680
29.69000 382.955
29.86000 409.576
30.03000 467.129
30.20000 478.728
30.37000 412.011
30.54000 397.319
30.71000 429.604
30.88000 470.378
31.05000 632.891
31.22000 1582.873
31.39000 3208.059
31.56000 1935.933
31.73000 738.958
31.90000 447.895
32.07000 385.941
32.24000 358.856
32.41000 341.671
32.58000 349.744
32.75000 342.353
32.92000 314.179
33.09000 319.902
33.26000 309.307
33.43000 304.976
33.60000 306.915
33.77000 286.967
33.94000 301.881
34.11000 291.488
34.28000 292.156
34.45000 282.492
34.62000 283.468
34.79000 280.455
34.96000 269.992
35.13000 275.441
35.30000 264.425
35.47000 261.455
35.64000 262.038
35.81000 276.781
35.98000 271.683
36.15000 263.297
36.32000 269.327
36.49000 261.843
36.66000 258.691
36.83000 272.677
37.00000 287.411
37.17000 286.148
37.34000 265.282
37.51000 252.904
37.68000 265.352
37.85000 259.283
38.02000 260.505
38.19000 285.850
38.36000 311.250
38.53000 565.895
38.70000 1103.927
38.87000 823.849
39.04000 363.490
39.21000 265.427
39.38000 247.829
39.55000 251.134
39.72000 239.595
39.89000 231.922
40.06000 237.759
40.23000 235.401
40.40000 225.665
40.57000 229.648
40.74000 220.649
40.91000 205.782
41.08000 213.457
41.25000 210.552
41.42000 210.913
41.59000 211.902
41.76000 225.067
41.93000 219.610
42.10000 203.751
42.27000 197.302
42.44000 211.702
42.61000 207.199
42.78000 205.226
42.95000 214.616
43.12000 202.295
43.29000 206.489
43.46000 204.443
43.63000 201.299
43.80000 202.992
43.97000 202.298
44.14000 189.664
44.31000 197.667
44.48000 203.764
44.65000 209.493
44.82000 214.715
44.99000 290.087
45.16000 325.487
45.33000 311.457
45.50000 251.404
45.67000 221.918
45.84000 203.852
46.01000 193.832
46.18000 192.207
46.35000 184.719
46.52000 179.046
46.69000 172.287
46.86000 174.277
47.03000 179.379
47.20000 171.256
47.37000 162.459
47.54000 164.569
47.71000 161.160
47.88000 171.022
48.05000 165.113
48.22000 159.837
48.39000 165.449
48.56000 166.401
48.73000 155.450
48.90000 164.338
49.07000 160.008
49.24000 150.440
49.41000 148.049
49.58000 151.947
49.75000 158.242
49.92000 143.772
50.09000 168.716
50.26000 160.130
50.43000 164.682
50.60000 195.774
50.77000 224.344
50.94000 198.358
51.11000 165.213
51.28000 168.927
51.45000 154.141
51.62000 141.112
51.79000 136.650
51.96000 155.795
52.13000 143.548
52.30000 143.209
52.47000 146.639
52.64000 141.073
52.81000 141.335
52.98000 148.345
53.15000 148.315
53.32000 148.015
53.49000 154.454
53.66000 142.045
53.83000 144.491
54.00000 141.172
54.17000 147.622
54.34000 138.115
54.51000 138.632
54.68000 144.383
54.85000 144.155
55.02000 138.974
55.19000 145.877
55.36000 178.932
55.53000 180.207
55.70000 250.059
55.87000 453.154
56.04000 554.238
56.21000 360.246
56.38000 236.978
56.55000 182.035
56.72000 161.921
56.89000 150.909
57.06000 136.859
57.23000 132.148
57.40000 136.000
57.57000 123.907
57.74000 125.875
57.91000 123.788
58.08000 128.802
58.25000 122.200
58.42000 115.802
58.59000 115.804
58.76000 114.991
58.93000 123.865
59.10000 133.324
59.27000 124.295
59.44000 124.705
59.61000 109.752
59.78000 115.903
59.95000 113.023
60.12000 114.644
60.29000 123.927
60.46000 117.675
60.63000 124.074
60.80000 124.159
60.97000 118.731
61.14000 117.582
61.31000 123.846
61.48000 138.058
61.65000 343.532
61.82000 213.494
61.99000 131.800
62.16000 136.476
62.33000 135.372
62.50000 138.184
62.67000 132.534
62.84000 139.077
63.01000 143.760
63.18000 141.099
63.35000 136.292
63.52000 136.050
63.69000 142.188
63.86000 148.703
64.03000 158.182
64.20000 150.965
64.37000 162.490
64.54000 169.915
64.71000 184.847
64.88000 190.166
65.05000 206.909
65.22000 259.544
65.39000 334.234
65.56000 494.320
65.73000 1448.435
65.90000 2483.103
66.07000 601.209
66.24000 470.777
66.41000 756.231
66.58000 484.260
66.75000 394.629
66.92000 406.775
67.09000 417.722
67.26000 435.189
67.43000 477.569
67.60000 489.312
67.77000 506.333
67.94000 545.658
68.11000 614.068
68.28000 634.560
68.45000 741.121
68.62000 1091.292
68.79000 2058.182
68.96000 13892.428
69.13000 60488.566
69.30000 32249.441
69.47000 7233.029
69.64000 1093.737
69.81000 707.084
69.98000 554.650
70.00000 566.491

File: BTO_Mapping_Theta2Theta_09-10-2025_001_55_13-383_-14-863.xy
20.00000 492.127
20.17000 503.402
20.34000 481.008
20.51000 471.664
20.68000 480.687
20.85000 477.104
21.02000 459.702
21.19000 480.791
21.36000 477.149
21.53000 480.347
21.70000 508.170
21.87000 528.481
22.04000 593.844
22.21000 592.301
22.38000 530.266
22.55000 465.215
22.72000 463.445
22.89000 433.559
23.06000 434.015
23.23000 451.812
23.40000 435.590
23.57000 437.827
23.74000 434.688
23.91000 438.960
24.08000 430.175
24.25000 434.708
24.42000 418.011
24.59000 423.235
24.76000 433.110
24.93000 413.211
25.10000 415.211
25.27000 405.818
25.44000 399.299
25.61000 396.308
25.78000 378.731
25.95000 410.645
26.12000 395.515
26.29000 377.449
26.46000 395.594
26.63000 386.037
26.80000 377.353
26.97000 380.030
27.14000 371.478
27.31000 375.929
27.48000 387.657
27.65000 372.248
27.82000 381.791
27.99000 386.860
28.16000 378.700
28.33000 379.565
28.50000 367.891
28.67000 360.421
28.84000 346.443
29.01000 357.230
29.18000 358.362
29.35000 365.268
29.52000 378.268
29.69000 371.284
29.86000 403.304
30.03000 442.620
30.20000 448.574
30.37000 415.059
30.54000 378.343
30.71000 398.943
30.88000 455.367
31.05000 605.106
31.22000 1442.497
31.39000 2984.008
31.56000 1975.963
31.73000 736.107
31.90000 470.361
32.07000 390.581
32.24000 371.484
32.41000 331.652
32.58000 333.532
32.75000 327.734
32.92000 332.579
33.09000 299.557
33.26000 286.950
33.43000 322.707
33.60000 303.637
33.77000 292.324
33.94000 286.129
34.11000 294.685
34.28000 300.397
34.45000 281.158
34.62000 267.345
34.79000 290.843
34.96000 287.349
35.13000 272.286
35.30000 275.170
35.47000 271.489
35.64000 260.383
35.81000 273.355
35.98000 282.817
36.15000 274.864
36.32000 265.268
36.49000 272.856
36.66000 270.163
36.83000 261.481
37.00000 288.338
37.17000 277.615
37.34000 263.323
37.51000 252.232
37.68000 276.268
37.85000 257.138
38.02000 249.275
38.19000 303.484
38.36000 324.600
38.53000 519.724
38.70000 1123.038
38.87000 884.685
39.04000 374.918
39.21000 272.725
39.38000 254.783
39.55000 260.380
39.72000 233.293
39.89000 226.597
40.06000 216.768
40.23000 238.897
40.40000 213.434
40.57000 211.458
40.74000 210.401
40.91000 208.386
41.08000 210.749
41.25000 203.338
41.42000 205.419
41.59000 217.820
41.76000 215.629
41.93000 200.945
42.10000 214.426
42.27000 207.422
42.44000 213.237
42.61000 207.652
42.78000 205.674
42.95000 207.317
43.12000 208.610
43.29000 206.883
43.46000 198.688
43.63000 208.405
43.80000 205.809
43.97000 191.281
44.14000 196.056
44.31000 203.460
44.48000 195.524
44.65000 196.348
44.82000 225.788
44.99000 262.792
45.16000 312.107
45.33000 286.681
45.50000 238.702
45.67000 225.067
45.84000 215.854
46.01000 192.873
46.18000 186.684
46.35000 173.104
46.52000 178.724
46.69000 171.964
46.86000 162.746
47.03000 187.212
47.20000 176.394
47.37000 168.335
47.54000 173.028
47.71000 169.052
47.88000 172.619
48.05000 167.336
48.22000 161.480
48.39000 177.165
48.56000 158.982
48.73000 151.075
48.90000 162.479
49.07000 160.705
49.24000 155.306
49.41000 153.572
49.58000 153.763
49.75000 152.578
49.92000 157.184
50.09000 146.901
50.26000 158.739
50.43000 174.734
50.60000 195.700
50.77000 231.560
50.94000 197.906
51.11000 174.786
51.28000 153.147
51.45000 156.023
51.62000 144.577
51.79000 137.991
51.96000 145.225
52.13000 140.791
52.30000 139.593
52.47000 116.317
52.64000 143.367
52.81000 140.907
52.98000 139.514
53.15000 143.473
53.32000 139.353
53.49000 151.520
53.66000 147.505
53.83000 145.873
54.00000 143.124
54.17000 133.003
54.34000 136.855
54.51000 133.439
54.68000 139.590
54.85000 134.360
55.02000 140.373
55.19000 144.549
55.36000 147.367
55.53000 177.850
55.70000 251.046
55.87000 437.835
56.04000 546.935
56.21000 376.387
56.38000 225.447
56.55000 170.646
56.72000 146.091
56.89000 142.018
57.06000 140.913
57.23000 135.255
57.40000 135.455
57.57000 119.204
57.74000 120.906
57.91000 126.640
58.08000 126.308
58.25000 120.835
58.42000 129.373
58.59000 114.535
58.76000 119.934
58.93000 106.903
59.10000 120.575
59.27000 124.655
59.44000 117.825
59.61000 115.489
59.78000 117.689
59.95000 115.797
60.12000 124.637
60.29000 110.884
60.46000 104.621
60.63000 126.896
60.80000 112.193
60.97000 127.739
61.14000 116.814
61.31000 123.095
61.48000 131.330
61.65000 328.278
61.82000 210.632
61.99000 138.868
62.16000 129.096
62.33000 128.623
62.50000 128.540
62.67000 136.435
62.84000 135.878
63.01000 144.079
63.18000 148.263
63.35000 140.771
63.52000 138.006
63.69000 146.675
63.86000 146.353
64.03000 151.744
64.20000 147.880
64.37000 153.926
64.54000 155.544
64.71000 175.869
64.88000 187.071
65.05000 212.615
65.22000 236.629
65.39000 328.735
65.56000 458.032
65.73000 1376.040
65.90000 2408.368
66.07000 567.045
66.24000 460.372
66.41000 736.477
66.58000 482.979
66.75000 384.304
66.92000 410.974
67.09000 413.944
67.26000 423.197
67.43000 458.008
67.60000 469.294
67.77000 508.476
67.94000 550.570
68.11000 586.867
68.28000 650.737
68.45000 731.392
68.62000 1073.089
68.79000 1961.508
68.96000 13372.785
69.13000 57621.426
69.30000 30501.053
69.47000 6984.542
69.64000 1058.203
69.81000 683.550
69.98000 539.054
70.00000 507.764

File: BTO_Mapping_Theta2Theta_09-10-2025_001_57_26-765_-29-726.xy
20.00000 490.911
20.17000 475.657
20.34000 480.254
20.51000 484.208
20.68000 482.461
20.85000 468.265
21.02000 475.518
21.19000 484.301
21.36000 481.095
21.53000 478.943
21.70000 484.780
21.87000 521.089
22.04000 551.963
22.21000 575.762
22.38000 518.656
22.55000 491.593
22.72000 464.043
22.89000 461.988
23.06000 442.637
23.23000 448.566
23.40000 444.977
23.57000 447.812
23.74000 454.375
23.91000 446.025
24.08000 433.272
24.25000 435.664
24.42000 427.926
24.59000 426.265
24.76000 405.730
24.93000 427.181
25.10000 398.379
25.27000 414.053
25.44000 406.611
25.61000 399.628
25.78000 393.433
25.95000 400.189
26.12000 390.367
26.29000 389.923
26.46000 387.475
26.63000 386.172
26.80000 372.108
26.97000 384.756
27.14000 375.354
27.31000 369.371
27.48000 373.137
27.65000 381.811
27.82000 366.366
27.99000 348.771
28.16000 373.582
28.33000 368.692
28.50000 372.979
28.67000 365.920
28.84000 335.361
29.01000 352.662
29.18000 364.403
29.35000 346.080
29.52000 344.688
29.69000 342.466
29.86000 380.300
30.03000 428.695
30.20000 418.377
30.37000 388.760
30.54000 392.216
30.71000 391.994
30.88000 414.619
31.05000 485.662
31.22000 1032.421
31.39000 2238.353
31.56000 1778.675
31.73000 756.116
31.90000 467.150
32.07000 361.805
32.24000 347.758
32.41000 329.619
32.58000 326.624
32.75000 328.424
32.92000 308.108
33.09000 315.648
33.26000 301.906
33.43000 305.664
33.60000 306.590
33.77000 296.510
33.94000 297.688
34.11000 300.896
34.28000 285.273
34.45000 281.104
34.62000 275.881
34.79000 296.334
34.96000 280.956
35.13000 271.459
35.30000 275.355
35.47000 272.868
35.64000 267.782
35.81000 275.828
35.98000 262.170
36.15000 259.283
36.32000 257.430
36.49000 269.673
36.66000 246.629
36.83000 271.715
37.00000 288.428
37.17000 294.143
37.34000 252.733
37.51000 262.398
37.68000 268.060
37.85000 264.081
38.02000 256.876
38.19000 268.581
38.36000 290.623
38.53000 440.771
38.70000 1012.211
38.87000 996.581
39.04000 408.083
39.21000 282.533
39.38000 254.598
39.55000 238.712
39.72000 236.548
39.89000 235.978
40.06000 237.103
40.23000 219.373
40.40000 208.111
40.57000 222.711
40.74000 226.594
40.91000 216.884
41.08000 221.940
41.25000 216.030
41.42000 206.328
41.59000 211.292
41.76000 216.123
41.93000 213.904
42.10000 201.485
42.27000 212.687
42.44000 193.734
42.61000 210.523
42.78000 201.277
42.95000 194.809
43.12000 199.356
43.29000 201.176
43.46000 197.906
43.63000 211.242
43.80000 188.433
43.97000 193.823
44.14000 191.951
44.31000 190.716
44.48000 210.826
44.65000 213.937
44.82000 220.408
44.99000 241.223
45.16000 259.547
45.33000 275.595
45.50000 253.047
45.67000 225.284
45.84000 204.536
46.01000 202.119
46.18000 182.530
46.35000 176.896
46.52000 185.591
46.69000 178.070
46.86000 171.944
47.03000 166.726
47.20000 173.035
47.37000 158.679
47.54000 158.885
47.71000 163.959
47.88000 157.474
48.05000 169.744
48.22000 165.504
48.39000 152.890
48.56000 152.878
48.73000 161.855
48.90000 159.270
49.07000 155.602
49.24000 158.783
49.41000 154.321
49.58000 154.416
49.75000 143.381
49.92000 164.825
50.09000 148.984
50.26000 154.548
50.43000 160.875
50.60000 184.159
50.77000 205.260
50.94000 200.994
51.11000 178.939
51.28000 155.596
51.45000 145.541
51.62000 153.430
51.79000 143.253
51.96000 148.069
52.13000 142.096
52.30000 148.480
52.47000 131.120
52.64000 140.985
52.81000 148.278
52.98000 144.646
53.15000 141.301
53.32000 151.632
53.49000 159.345
53.66000 146.656
53.83000 148.426
54.00000 142.605
54.17000 133.502
54.34000 133.834
54.51000 135.723
54.68000 138.701
54.85000 139.916
55.02000 134.538
55.19000 146.305
55.36000 149.289
55.53000 168.959
55.70000 228.307
55.87000 369.573
56.04000 545.344
56.21000 425.580
56.38000 243.922
56.55000 174.198
56.72000 153.213
56.89000 134.427
57.06000 122.792
57.23000 133.076
57.40000 131.487
57.57000 121.039
57.74000 119.803
57.91000 118.733
58.08000 117.982
58.25000 119.627
58.42000 123.883
58.59000 129.750
58.76000 127.399
58.93000 121.352
59.10000 123.589
59.27000 115.562
59.44000 125.029
59.61000 124.277
59.78000 123.318
59.95000 126.281
60.12000 109.722
60.29000 128.203
60.46000 121.898
60.63000 121.250
60.80000 116.225
60.97000 118.777
61.14000 118.907
61.31000 124.039
61.48000 134.099
61.65000 315.389
61.82000 209.857
61.99000 141.681
62.16000 131.183
62.33000 129.165
62.50000 132.744
62.67000 138.314
62.84000 142.064
63.01000 130.535
63.18000 140.964
63.35000 136.097
63.52000 142.417
63.69000 142.302
63.86000 142.274
64.03000 145.206
64.20000 150.186
64.37000 167.933
64.54000 174.883
64.71000 179.185
64.88000 181.984
65.05000 204.563
65.22000 218.893
65.39000 268.944
65.56000 423.179
65.73000 1229.160
65.90000 2334.554
66.07000 589.981
66.24000 464.658
66.41000 735.934
66.58000 450.632
66.75000 377.363
66.92000 389.227
67.09000 405.755
67.26000 429.207
67.43000 441.915
67.60000 477.027
67.77000 486.371
67.94000 532.254
68.11000 579.793
68.28000 626.745
68.45000 745.652
68.62000 1017.656
68.79000 1927.687
68.96000 11450.046
69.13000 54789.734
69.30000 30129.732
69.47000 7373.066
69.64000 1066.955
69.81000 677.974
69.98000 558.501
70.00000 553.452