Folder: Master-Thesis/XRD/XRD/09-10-2025 Dep 8/XY Data (part 3)

File: BTO_Mapping_Theta2Theta_09-10-2025_001_18_-1-045_9-945.xy
20.00000 501.854
20.17000 478.468
20.34000 481.564
20.51000 484.066
20.68000 496.270
20.85000 479.580
21.02000 480.443
21.19000 461.332
21.36000 458.489
21.53000 495.815
21.70000 490.218
21.87000 524.477
22.04000 616.086
22.21000 612.499
22.38000 524.967
22.55000 480.195
22.72000 443.488
22.89000 439.740
23.06000 446.998
23.23000 435.530
23.40000 441.615
23.57000 425.473
23.74000 434.453
23.91000 420.371
24.08000 440.598
24.25000 425.377
24.42000 441.015
24.59000 411.985
24.76000 418.470
24.93000 419.302
25.10000 422.908
25.27000 415.953
25.44000 420.163
25.61000 396.500
25.78000 411.425
25.95000 398.001
26.12000 394.336
26.29000 373.354
26.46000 393.343
26.63000 379.159
26.80000 401.423
26.97000 377.840
27.14000 389.934
27.31000 388.045
27.48000 364.581
27.65000 384.617
27.82000 374.290
27.99000 363.784
28.16000 374.723
28.33000 391.158
28.50000 356.384
28.67000 380.602
28.84000 368.778
29.01000 374.776
29.18000 364.152
29.35000 374.367
29.52000 355.395
29.69000 360.265
29.86000 408.066
30.03000 440.250
30.20000 423.901
30.37000 418.791
30.54000 397.335
30.71000 425.099
30.88000 458.383
31.05000 600.377
31.22000 1540.871
31.39000 3122.210
31.56000 1975.009
31.73000 733.420
31.90000 425.962
32.07000 399.456
32.24000 358.277
32.41000 347.206
32.58000 334.169
32.75000 339.208
32.92000 327.885
33.09000 300.214
33.26000 309.483
33.43000 320.028
33.60000 290.718
33.77000 292.982
33.94000 286.234
34.11000 294.456
34.28000 297.459
34.45000 284.217
34.62000 295.078
34.79000 286.917
34.96000 290.525
35.13000 279.263
35.30000 277.829
35.47000 275.408
35.64000 264.456
35.81000 268.055
35.98000 269.602
36.15000 284.643
36.32000 248.851
36.49000 273.566
36.66000 256.582
36.83000 265.753
37.00000 291.826
37.17000 275.045
37.34000 272.899
37.51000 261.138
37.68000 263.614
37.85000 256.165
38.02000 263.630
38.19000 266.231
38.36000 326.333
38.53000 557.192
38.70000 1058.384
38.87000 786.991
39.04000 345.272
39.21000 277.573
39.38000 250.452
39.55000 253.537
39.72000 244.173
39.89000 235.092
40.06000 224.810
40.23000 234.042
40.40000 224.622
40.57000 230.855
40.74000 214.489
40.91000 223.961
41.08000 215.852
41.25000 212.426
41.42000 221.968
41.59000 217.562
41.76000 206.641
41.93000 221.485
42.10000 202.121
42.27000 201.408
42.44000 195.711
42.61000 202.517
42.78000 205.104
42.95000 203.552
43.12000 202.797
43.29000 203.328
43.46000 194.163
43.63000 205.242
43.80000 203.722
43.97000 184.542
44.14000 191.338
44.31000 197.428
44.48000 199.695
44.65000 207.557
44.82000 236.167
44.99000 287.196
45.16000 325.361
45.33000 300.626
45.50000 262.528
45.67000 226.503
45.84000 203.696
46.01000 193.720
46.18000 191.460
46.35000 188.092
46.52000 169.888
46.69000 177.613
46.86000 164.845
47.03000 168.430
47.20000 174.076
47.37000 165.187
47.54000 160.405
47.71000 159.520
47.88000 155.909
48.05000 153.675
48.22000 158.316
48.39000 169.555
48.56000 168.632
48.73000 152.298
48.90000 153.763
49.07000 157.346
49.24000 156.648
49.41000 150.265
49.58000 147.322
49.75000 154.527
49.92000 161.969
50.09000 162.205
50.26000 168.991
50.43000 172.509
50.60000 200.568
50.77000 222.746
50.94000 206.858
51.11000 176.951
51.28000 168.695
51.45000 154.682
51.62000 151.977
51.79000 148.359
51.96000 136.967
52.13000 138.008
52.30000 143.040
52.47000 146.992
52.64000 131.596
52.81000 143.613
52.98000 146.718
53.15000 146.921
53.32000 154.351
53.49000 154.229
53.66000 144.865
53.83000 144.813
54.00000 139.746
54.17000 144.586
54.34000 140.297
54.51000 138.314
54.68000 134.297
54.85000 143.950
55.02000 145.883
55.19000 157.209
55.36000 148.811
55.53000 170.720
55.70000 242.336
55.87000 472.573
56.04000 540.771
56.21000 355.082
56.38000 239.620
56.55000 173.573
56.72000 143.509
56.89000 121.737
57.06000 127.822
57.23000 135.882
57.40000 128.534
57.57000 130.926
57.74000 127.709
57.91000 123.284
58.08000 122.738
58.25000 119.824
58.42000 123.306
58.59000 123.455
58.76000 125.966
58.93000 122.085
59.10000 113.401
59.27000 122.595
59.44000 114.313
59.61000 119.025
59.78000 113.352
59.95000 109.842
60.12000 122.625
60.29000 110.475
60.46000 127.488
60.63000 110.168
60.80000 124.140
60.97000 121.411
61.14000 121.829
61.31000 116.595
61.48000 142.537
61.65000 339.590
61.82000 213.577
61.99000 140.394
62.16000 134.250
62.33000 142.909
62.50000 131.858
62.67000 139.894
62.84000 135.026
63.01000 137.408
63.18000 144.841
63.35000 132.858
63.52000 141.961
63.69000 143.833
63.86000 140.511
64.03000 155.550
64.20000 146.696
64.37000 157.914
64.54000 176.238
64.71000 185.562
64.88000 192.144
65.05000 201.363
65.22000 246.305
65.39000 331.547
65.56000 493.937
65.73000 1483.376
65.90000 2544.076
66.07000 612.864
66.24000 469.509
66.41000 791.628
66.58000 477.844
66.75000 401.406
66.92000 429.962
67.09000 444.445
67.26000 457.301
67.43000 488.918
67.60000 494.920
67.77000 521.994
67.94000 569.790
68.11000 585.515
68.28000 670.048
68.45000 772.249
68.62000 1129.627
68.79000 2136.780
68.96000 14588.972
69.13000 62108.598
69.30000 32815.977
69.47000 7361.518
69.64000 1114.174
69.81000 718.384
69.98000 566.400
70.00000 546.221

File: BTO_Mapping_Theta2Theta_09-10-2025_001_19_-2-091_19-890.xy
20.00000 486.291
20.17000 501.438
20.34000 481.291
20.51000 466.720
20.68000 492.780
20.85000 477.925
21.02000 465.932
21.19000 472.846
21.36000 490.351
21.53000 469.640
21.70000 499.105
21.87000 532.745
22.04000 579.878
22.21000 612.539
22.38000 529.317
22.55000 485.697
22.72000 471.960
22.89000 437.837
23.06000 458.029
23.23000 452.345
23.40000 432.010
23.57000 427.855
23.74000 427.239
23.91000 407.538
24.08000 435.874
24.25000 427.788
24.42000 429.641
24.59000 421.888
24.76000 422.108
24.93000 408.717
25.10000 417.672
25.27000 413.578
25.44000 409.497
25.61000 393.315
25.78000 382.403
25.95000 405.844
26.12000 396.413
26.29000 386.059
26.46000 398.646
26.63000 389.927
26.80000 385.665
26.97000 366.817
27.14000 368.324
27.31000 375.292
27.48000 372.715
27.65000 365.711
27.82000 360.282
27.99000 376.270
28.16000 375.624
28.33000 378.095
28.50000 375.960
28.67000 357.956
28.84000 358.778
29.01000 350.452
29.18000 346.917
29.35000 362.405
29.52000 377.352
29.69000 367.922
29.86000 398.698
30.03000 456.130
30.20000 420.858
30.37000 403.313
30.54000 412.459
30.71000 423.893
30.88000 441.998
31.05000 569.985
31.22000 1340.008
31.39000 2976.028
31.56000 1999.153
31.73000 797.930
31.90000 482.635
32.07000 377.317
32.24000 353.444
32.41000 336.146
32.58000 334.164
32.75000 335.985
32.92000 324.690
33.09000 310.954
33.26000 312.815
33.43000 292.779
33.60000 296.314
33.77000 303.317
33.94000 295.895
34.11000 297.770
34.28000 291.958
34.45000 278.467
34.62000 279.983
34.79000 295.990
34.96000 301.160
35.13000 270.932
35.30000 283.610
35.47000 274.161
35.64000 264.128
35.81000 263.957
35.98000 278.962
36.15000 268.856
36.32000 273.115
36.49000 270.530
36.66000 268.219
36.83000 270.729
37.00000 291.088
37.17000 265.009
37.34000 262.525
37.51000 258.855
37.68000 263.762
37.85000 274.648
38.02000 272.902
38.19000 273.567
38.36000 315.106
38.53000 515.713
38.70000 1057.739
38.87000 855.745
39.04000 370.454
39.21000 263.759
39.38000 260.035
39.55000 243.822
39.72000 234.469
39.89000 242.573
40.06000 232.123
40.23000 225.286
40.40000 217.998
40.57000 225.515
40.74000 224.281
40.91000 224.596
41.08000 206.432
41.25000 214.975
41.42000 217.450
41.59000 217.069
41.76000 212.652
41.93000 217.877
42.10000 211.062
42.27000 202.507
42.44000 211.701
42.61000 202.898
42.78000 213.976
42.95000 199.245
43.12000 200.471
43.29000 186.022
43.46000 216.564
43.63000 205.036
43.80000 190.445
43.97000 198.760
44.14000 187.900
44.31000 201.767
44.48000 188.734
44.65000 199.012
44.82000 220.790
44.99000 284.104
45.16000 330.347
45.33000 301.183
45.50000 253.398
45.67000 224.981
45.84000 213.575
46.01000 191.415
46.18000 190.427
46.35000 185.216
46.52000 168.381
46.69000 168.521
46.86000 168.728
47.03000 170.996
47.20000 172.885
47.37000 167.196
47.54000 162.660
47.71000 166.222
47.88000 158.109
48.05000 167.486
48.22000 157.559
48.39000 154.617
48.56000 151.683
48.73000 152.287
48.90000 152.718
49.07000 160.081
49.24000 154.494
49.41000 152.638
49.58000 144.832
49.75000 158.642
49.92000 164.449
50.09000 149.033
50.26000 159.285
50.43000 181.844
50.60000 199.671
50.77000 226.107
50.94000 209.932
51.11000 172.237
51.28000 158.698
51.45000 146.809
51.62000 154.060
51.79000 148.180
51.96000 143.417
52.13000 147.695
52.30000 145.672
52.47000 140.474
52.64000 140.279
52.81000 134.539
52.98000 149.803
53.15000 142.531
53.32000 145.365
53.49000 148.991
53.66000 145.534
53.83000 161.566
54.00000 141.012
54.17000 132.624
54.34000 132.709
54.51000 140.911
54.68000 139.250
54.85000 131.121
55.02000 139.183
55.19000 140.185
55.36000 158.166
55.53000 166.986
55.70000 247.313
55.87000 439.948
56.04000 542.223
56.21000 390.118
56.38000 225.184
56.55000 167.878
56.72000 156.166
56.89000 135.381
57.06000 135.123
57.23000 131.240
57.40000 139.387
57.57000 125.769
57.74000 129.076
57.91000 129.044
58.08000 125.106
58.25000 126.097
58.42000 130.189
58.59000 123.011
58.76000 122.002
58.93000 128.591
59.10000 122.786
59.27000 121.456
59.44000 116.500
59.61000 109.069
59.78000 122.946
59.95000 115.344
60.12000 121.997
60.29000 123.032
60.46000 119.505
60.63000 115.730
60.80000 125.019
60.97000 124.040
61.14000 122.167
61.31000 119.992
61.48000 130.876
61.65000 347.276
61.82000 227.422
61.99000 133.097
62.16000 134.149
62.33000 139.749
62.50000 139.792
62.67000 141.167
62.84000 133.232
63.01000 144.432
63.18000 143.230
63.35000 132.110
63.52000 144.358
63.69000 140.743
63.86000 143.263
64.03000 145.445
64.20000 165.506
64.37000 153.198
64.54000 161.924
64.71000 173.206
64.88000 191.152
65.05000 207.344
65.22000 236.104
65.39000 327.740
65.56000 477.546
65.73000 1424.339
65.90000 2500.402
66.07000 612.748
66.24000 485.380
66.41000 772.244
66.58000 484.517
66.75000 386.455
66.92000 401.196
67.09000 427.889
67.26000 439.095
67.43000 495.444
67.60000 500.586
67.77000 533.039
67.94000 542.309
68.11000 589.631
68.28000 656.453
68.45000 776.438
68.62000 1111.609
68.79000 2044.113
68.96000 13477.938
69.13000 59743.371
69.30000 32186.764
69.47000 7568.238
69.64000 1071.858
69.81000 686.450
69.98000 563.715
70.00000 562.867

File: BTO_Mapping_Theta2Theta_09-10-2025_001_26_-8-090_5-878.xy
20.00000 513.637
20.17000 485.246
20.34000 480.891
20.51000 489.092
20.68000 470.663
20.85000 472.530
21.02000 477.614
21.19000 477.066
21.36000 494.487
21.53000 486.391
21.70000 502.741
21.87000 566.603
22.04000 660.308
22.21000 611.165
22.38000 512.701
22.55000 465.711
22.72000 469.714
22.89000 432.695
23.06000 449.937
23.23000 445.112
23.40000 434.734
23.57000 438.641
23.74000 436.648
23.91000 418.866
24.08000 422.866
24.25000 418.175
24.42000 407.142
24.59000 422.857
24.76000 405.350
24.93000 411.175
25.10000 414.138
25.27000 423.349
25.44000 405.790
25.61000 413.146
25.78000 385.538
25.95000 407.663
26.12000 389.152
26.29000 401.695
26.46000 392.809
26.63000 383.423
26.80000 397.383
26.97000 388.298
27.14000 381.934
27.31000 389.758
27.48000 385.965
27.65000 383.345
27.82000 382.801
27.99000 384.153
28.16000 377.530
28.33000 378.694
28.50000 368.412
28.67000 364.042
28.84000 371.344
29.01000 383.972
29.18000 368.010
29.35000 351.368
29.52000 371.370
29.69000 369.264
29.86000 411.750
30.03000 478.922
30.20000 439.521
30.37000 400.154
30.54000 395.738
30.71000 408.039
30.88000 450.929
31.05000 632.204
31.22000 1616.842
31.39000 3101.893
31.56000 1847.492
31.73000 708.039
31.90000 450.622
32.07000 381.156
32.24000 374.679
32.41000 345.116
32.58000 344.807
32.75000 333.450
32.92000 326.246
33.09000 305.163
33.26000 315.369
33.43000 308.762
33.60000 303.523
33.77000 295.821
33.94000 308.452
34.11000 299.354
34.28000 277.860
34.45000 298.078
34.62000 291.170
34.79000 278.474
34.96000 290.973
35.13000 272.108
35.30000 271.024
35.47000 278.020
35.64000 277.590
35.81000 274.930
35.98000 257.608
36.15000 273.440
36.32000 270.892
36.49000 254.051
36.66000 270.521
36.83000 284.555
37.00000 277.071
37.17000 284.908
37.34000 267.105
37.51000 261.805
37.68000 267.885
37.85000 266.556
38.02000 266.606
38.19000 284.219
38.36000 324.156
38.53000 587.364
38.70000 1034.400
38.87000 694.603
39.04000 332.995
39.21000 262.502
39.38000 267.591
39.55000 244.413
39.72000 235.996
39.89000 222.569
40.06000 227.021
40.23000 218.478
40.40000 228.269
40.57000 237.076
40.74000 219.447
40.91000 231.110
41.08000 220.646
41.25000 215.726
41.42000 218.091
41.59000 214.199
41.76000 217.615
41.93000 212.015
42.10000 227.495
42.27000 204.708
42.44000 213.160
42.61000 197.236
42.78000 205.738
42.95000 208.369
43.12000 204.328
43.29000 208.813
43.46000 218.115
43.63000 206.552
43.80000 203.241
43.97000 204.949
44.14000 203.349
44.31000 195.012
44.48000 198.892
44.65000 211.223
44.82000 266.194
44.99000 340.465
45.16000 366.337
45.33000 309.457
45.50000 245.944
45.67000 229.105
45.84000 210.509
46.01000 188.975
46.18000 180.424
46.35000 170.382
46.52000 165.956
46.69000 170.392
46.86000 169.789
47.03000 166.986
47.20000 176.799
47.37000 160.246
47.54000 173.210
47.71000 178.131
47.88000 163.532
48.05000 168.028
48.22000 163.517
48.39000 162.307
48.56000 169.278
48.73000 158.104
48.90000 158.786
49.07000 155.195
49.24000 154.624
49.41000 159.579
49.58000 153.915
49.75000 167.462
49.92000 162.693
50.09000 159.898
50.26000 165.254
50.43000 170.327
50.60000 206.700
50.77000 240.645
50.94000 199.849
51.11000 178.900
51.28000 162.861
51.45000 149.431
51.62000 159.273
51.79000 150.245
51.96000 139.097
52.13000 139.246
52.30000 144.535
52.47000 136.036
52.64000 146.594
52.81000 139.460
52.98000 145.822
53.15000 141.053
53.32000 148.479
53.49000 158.293
53.66000 149.921
53.83000 142.892
54.00000 138.193
54.17000 138.517
54.34000 148.720
54.51000 138.482
54.68000 145.358
54.85000 143.288
55.02000 149.320
55.19000 151.370
55.36000 147.994
55.53000 192.997
55.70000 284.770
55.87000 539.770
56.04000 565.768
56.21000 346.126
56.38000 220.265
56.55000 173.592
56.72000 149.026
56.89000 141.049
57.06000 141.535
57.23000 136.891
57.40000 142.424
57.57000 127.286
57.74000 128.435
57.91000 128.696
58.08000 130.698
58.25000 128.520
58.42000 130.270
58.59000 118.831
58.76000 117.558
58.93000 122.944
59.10000 121.468
59.27000 121.594
59.44000 117.861
59.61000 132.053
59.78000 121.158
59.95000 119.637
60.12000 114.712
60.29000 125.717
60.46000 109.498
60.63000 116.291
60.80000 124.700
60.97000 111.798
61.14000 123.794
61.31000 124.539
61.48000 131.214
61.65000 411.257
61.82000 227.470
61.99000 137.364
62.16000 130.225
62.33000 142.831
62.50000 137.148
62.67000 143.357
62.84000 140.158
63.01000 142.687
63.18000 130.354
63.35000 144.632
63.52000 148.635
63.69000 144.839
63.86000 156.664
64.03000 162.704
64.20000 169.988
64.37000 170.723
64.54000 176.002
64.71000 183.599
64.88000 193.521
65.05000 214.169
65.22000 265.005
65.39000 351.941
65.56000 530.760
65.73000 1653.113
65.90000 2890.394
66.07000 667.220
66.24000 538.150
66.41000 859.527
66.58000 527.625
66.75000 427.280
66.92000 439.303
67.09000 467.525
67.26000 475.585
67.43000 497.344
67.60000 527.155
67.77000 574.887
67.94000 583.225
68.11000 647.638
68.28000 697.557
68.45000 815.856
68.62000 1193.459
68.79000 2366.293
68.96000 17153.869
69.13000 71239.250
69.30000 37853.766
69.47000 8524.471
69.64000 1178.877
69.81000 769.733
69.98000 588.689
70.00000 586.768

File: BTO_Mapping_Theta2Theta_09-10-2025_001_30_-9-781_2-079.xy
20.00000 487.743
20.17000 494.523
20.34000 495.061
20.51000 478.657
20.68000 494.806
20.85000 471.687
21.02000 482.726
21.19000 502.129
21.36000 479.851
21.53000 482.970
21.70000 504.399
21.87000 596.247
22.04000 686.194
22.21000 627.859
22.38000 515.663
22.55000 500.641
22.72000 453.021
22.89000 464.281
23.06000 456.936
23.23000 436.045
23.40000 443.637
23.57000 435.292
23.74000 445.096
23.91000 445.419
24.08000 413.218
24.25000 430.417
24.42000 407.072
24.59000 433.721
24.76000 409.446
24.93000 423.307
25.10000 423.740
25.27000 419.347
25.44000 413.046
25.61000 404.910
25.78000 398.038
25.95000 412.940
26.12000 404.024
26.29000 394.281
26.46000 395.767
26.63000 384.199
26.80000 369.402
26.97000 371.737
27.14000 385.026
27.31000 376.702
27.48000 395.445
27.65000 394.869
27.82000 372.994
27.99000 388.967
28.16000 379.549
28.33000 366.396
28.50000 366.405
28.67000 370.876
28.84000 369.165
29.01000 378.866
29.18000 355.657
29.35000 358.389
29.52000 359.378
29.69000 372.525
29.86000 422.615
30.03000 463.667
30.20000 420.556
30.37000 407.951
30.54000 396.803
30.71000 410.073
30.88000 466.325
31.05000 629.346
31.22000 1655.426
31.39000 3039.543
31.56000 1776.082
31.73000 675.484
31.90000 458.731
32.07000 381.839
32.24000 361.112
32.41000 346.656
32.58000 341.999
32.75000 329.839
32.92000 324.002
33.09000 314.907
33.26000 293.808
33.43000 307.608
33.60000 302.370
33.77000 289.499
33.94000 288.222
34.11000 291.289
34.28000 281.885
34.45000 285.864
34.62000 281.804
34.79000 284.465
34.96000 296.895
35.13000 287.721
35.30000 286.319
35.47000 282.243
35.64000 266.534
35.81000 270.719
35.98000 279.885
36.15000 272.070
36.32000 255.260
36.49000 264.167
36.66000 263.395
36.83000 265.139
37.00000 274.963
37.17000 274.487
37.34000 266.841
37.51000 269.009
37.68000 260.097
37.85000 267.037
38.02000 262.342
38.19000 294.484
38.36000 335.649
38.53000 589.362
38.70000 994.977
38.87000 645.948
39.04000 327.806
39.21000 266.156
39.38000 254.711
39.55000 250.440
39.72000 248.374
39.89000 239.516
40.06000 225.257
40.23000 217.963
40.40000 217.964
40.57000 233.014
40.74000 227.861
40.91000 222.496
41.08000 224.657
41.25000 226.641
41.42000 222.782
41.59000 217.797
41.76000 212.669
41.93000 206.853
42.10000 198.616
42.27000 205.906
42.44000 222.982
42.61000 202.147
42.78000 202.673
42.95000 218.691
43.12000 207.218
43.29000 203.833
43.46000 198.520
43.63000 201.197
43.80000 195.301
43.97000 189.021
44.14000 183.241
44.31000 211.667
44.48000 202.661
44.65000 220.350
44.82000 267.629
44.99000 339.189
45.16000 367.852
45.33000 317.331
45.50000 255.392
45.67000 224.267
45.84000 206.776
46.01000 184.647
46.18000 189.046
46.35000 178.818
46.52000 177.090
46.69000 163.941
46.86000 187.879
47.03000 165.120
47.20000 159.305
47.37000 171.925
47.54000 173.212
47.71000 166.961
47.88000 160.265
48.05000 159.429
48.22000 163.053
48.39000 154.901
48.56000 161.567
48.73000 147.963
48.90000 157.435
49.07000 156.068
49.24000 150.220
49.41000 163.071
49.58000 158.469
49.75000 154.523
49.92000 160.322
50.09000 156.828
50.26000 173.819
50.43000 176.480
50.60000 222.505
50.77000 232.696
50.94000 208.842
51.11000 171.618
51.28000 151.986
51.45000 158.810
51.62000 142.416
51.79000 144.307
51.96000 147.872
52.13000 152.004
52.30000 138.882
52.47000 148.872
52.64000 146.156
52.81000 142.222
52.98000 145.628
53.15000 147.191
53.32000 151.061
53.49000 149.098
53.66000 138.023
53.83000 143.867
54.00000 140.237
54.17000 146.230
54.34000 138.044
54.51000 137.814
54.68000 138.190
54.85000 147.420
55.02000 151.173
55.19000 148.621
55.36000 167.847
55.53000 189.843
55.70000 290.666
55.87000 531.996
56.04000 537.868
56.21000 344.056
56.38000 215.446
56.55000 169.871
56.72000 147.438
56.89000 132.801
57.06000 129.099
57.23000 129.108
57.40000 122.978
57.57000 128.503
57.74000 127.516
57.91000 132.399
58.08000 128.208
58.25000 131.163
58.42000 119.516
58.59000 134.656
58.76000 122.425
58.93000 126.080
59.10000 126.404
59.27000 122.422
59.44000 118.692
59.61000 127.535
59.78000 121.176
59.95000 118.409
60.12000 132.621
60.29000 117.248
60.46000 125.108
60.63000 122.343
60.80000 123.380
60.97000 117.937
61.14000 130.436
61.31000 127.202
61.48000 159.163
61.65000 400.418
61.82000 237.718
61.99000 130.456
62.16000 132.764
62.33000 126.148
62.50000 138.387
62.67000 138.872
62.84000 128.366
63.01000 135.500
63.18000 127.217
63.35000 146.811
63.52000 140.893
63.69000 154.208
63.86000 149.507
64.03000 155.165
64.20000 157.360
64.37000 157.728
64.54000 174.144
64.71000 183.722
64.88000 198.296
65.05000 219.015
65.22000 262.407
65.39000 355.925
65.56000 517.793
65.73000 1757.489
65.90000 3082.537
66.07000 690.864
66.24000 548.237
66.41000 921.117
66.58000 544.060
66.75000 478.636
66.92000 459.653
67.09000 473.580
67.26000 487.473
67.43000 528.903
67.60000 543.627
67.77000 556.678
67.94000 622.374
68.11000 661.446
68.28000 740.522
68.45000 844.627
68.62000 1252.976
68.79000 2483.420
68.96000 18288.432
69.13000 75610.305
69.30000 40220.926
69.47000 9036.596
69.64000 1238.750
69.81000 770.850
69.98000 608.230
70.00000 622.297

File: BTO_Mapping_Theta2Theta_09-10-2025_001_34_-9-781_-2-079.xy
20.00000 490.890
20.17000 488.109
20.34000 492.389
20.51000 483.277
20.68000 497.191
20.85000 480.534
21.02000 493.187
21.19000 489.974
21.36000 485.010
21.53000 493.926
21.70000 492.866
21.87000 588.899
22.04000 694.766
22.21000 629.713
22.38000 504.771
22.55000 474.477
22.72000 459.800
22.89000 447.284
23.06000 445.268
23.23000 427.193
23.40000 437.353
23.57000 432.469
23.74000 431.279
23.91000 420.795
24.08000 431.598
24.25000 448.195
24.42000 413.294
24.59000 399.406
24.76000 421.575
24.93000 411.380
25.10000 431.520
25.27000 428.700
25.44000 400.091
25.61000 396.844
25.78000 393.573
25.95000 428.430
26.12000 402.453
26.29000 393.678
26.46000 388.698
26.63000 387.309
26.80000 367.643
26.97000 375.468
27.14000 365.266
27.31000 385.213
27.48000 360.878
27.65000 381.756
27.82000 384.808
27.99000 379.612
28.16000 389.759
28.33000 383.864
28.50000 374.438
28.67000 372.279
28.84000 363.181
29.01000 367.862
29.18000 358.377
29.35000 354.547
29.52000 358.800
29.69000 373.021
29.86000 397.910
30.03000 461.337
30.20000 419.135
30.37000 384.754
30.54000 396.338
30.71000 426.135
30.88000 458.223
31.05000 647.670
31.22000 1613.934
31.39000 3020.750
31.56000 1740.615
31.73000 690.295
31.90000 444.074
32.07000 382.076
32.24000 338.929
32.41000 344.394
32.58000 341.112
32.75000 337.827
32.92000 320.637
33.09000 303.765
33.26000 312.308
33.43000 309.273
33.60000 297.363
33.77000 288.802
33.94000 303.357
34.11000 301.617
34.28000 292.850
34.45000 299.671
34.62000 284.776
34.79000 286.514
34.96000 282.245
35.13000 286.123
35.30000 271.910
35.47000 275.537
35.64000 272.625
35.81000 262.172
35.98000 258.387
36.15000 268.725
36.32000 257.854
36.49000 269.355
36.66000 260.922
36.83000 275.532
37.00000 278.581
37.17000 279.589
37.34000 268.561
37.51000 263.741
37.68000 249.827
37.85000 264.019
38.02000 272.215
38.19000 275.957
38.36000 335.008
38.53000 597.234
38.70000 985.975
38.87000 641.162
39.04000 347.846
39.21000 279.391
39.38000 250.149
39.55000 249.062
39.72000 238.821
39.89000 253.024
40.06000 226.368
40.23000 226.106
40.40000 235.069
40.57000 225.710
40.74000 228.796
40.91000 225.652
41.08000 212.647
41.25000 203.814
41.42000 212.844
41.59000 216.540
41.76000 204.902
41.93000 212.352
42.10000 197.353
42.27000 212.390
42.44000 188.269
42.61000 221.777
42.78000 205.361
42.95000 202.047
43.12000 201.814
43.29000 208.191
43.46000 215.614
43.63000 208.121
43.80000 204.362
43.97000 210.558
44.14000 197.717
44.31000 184.917
44.48000 219.546
44.65000 231.506
44.82000 273.746
44.99000 372.521
45.16000 376.220
45.33000 309.543
45.50000 252.449
45.67000 230.965
45.84000 198.396
46.01000 202.256
46.18000 189.777
46.35000 179.111
46.52000 177.507
46.69000 167.373
46.86000 158.677
47.03000 173.213
47.20000 165.327
47.37000 166.870
47.54000 164.420
47.71000 174.348
47.88000 172.482
48.05000 161.823
48.22000 167.410
48.39000 172.594
48.56000 160.047
48.73000 162.325
48.90000 168.482
49.07000 148.324
49.24000 152.709
49.41000 162.433
49.58000 154.074
49.75000 143.256
49.92000 161.253
50.09000 153.403
50.26000 166.707
50.43000 176.390
50.60000 219.411
50.77000 236.949
50.94000 202.592
51.11000 179.125
51.28000 165.043
51.45000 151.767
51.62000 148.599
51.79000 147.999
51.96000 144.067
52.13000 142.131
52.30000 147.995
52.47000 159.143
52.64000 145.430
52.81000 144.342
52.98000 151.041
53.15000 141.272
53.32000 153.087
53.49000 153.901
53.66000 144.179
53.83000 131.571
54.00000 148.546
54.17000 139.394
54.34000 141.802
54.51000 146.318
54.68000 145.150
54.85000 148.187
55.02000 148.775
55.19000 156.716
55.36000 164.408
55.53000 198.800
55.70000 303.909
55.87000 524.684
56.04000 530.585
56.21000 340.518
56.38000 222.047
56.55000 165.550
56.72000 159.246
56.89000 137.690
57.06000 133.035
57.23000 136.656
57.40000 126.486
57.57000 125.689
57.74000 121.204
57.91000 127.785
58.08000 128.082
58.25000 128.808
58.42000 118.099
58.59000 131.017
58.76000 124.995
58.93000 121.916
59.10000 114.302
59.27000 126.101
59.44000 121.710
59.61000 114.114
59.78000 108.577
59.95000 123.153
60.12000 119.206
60.29000 113.706
60.46000 112.538
60.63000 127.413
60.80000 128.839
60.97000 116.297
61.14000 120.165
61.31000 134.745
61.48000 159.023
61.65000 420.262
61.82000 238.990
61.99000 133.916
62.16000 126.592
62.33000 133.882
62.50000 139.200
62.67000 147.467
62.84000 136.039
63.01000 143.976
63.18000 141.198
63.35000 145.297
63.52000 144.720
63.69000 139.500
63.86000 154.387
64.03000 156.996
64.20000 156.979
64.37000 168.052
64.54000 175.679
64.71000 184.325
64.88000 199.198
65.05000 237.952
65.22000 263.970
65.39000 368.106
65.56000 543.569
65.73000 1777.509
65.90000 3114.293
66.07000 713.126
66.24000 530.954
66.41000 931.887
66.58000 568.531
66.75000 444.420
66.92000 451.279
67.09000 495.609
67.26000 516.608
67.43000 529.095
67.60000 553.914
67.77000 584.987
67.94000 627.498
68.11000 659.474
68.28000 731.864
68.45000 896.495
68.62000 1256.038
68.79000 2544.400
68.96000 19011.709
69.13000 77772.195
69.30000 41451.906
69.47000 9323.315
69.64000 1242.989
69.81000 787.364
69.98000 623.983
70.00000 610.147