Folder: Master-Thesis/XRD/XRD/09-10-2025 Dep 8/XY Data (part 5)

File: BTO_Mapping_Theta2Theta_09-10-2025_001_45_-20-000_-34-641.xy
20.00000 480.544
20.17000 503.103
20.34000 495.411
20.51000 489.617
20.68000 481.471
20.85000 487.864
21.02000 505.062
21.19000 473.276
21.36000 495.883
21.53000 480.623
21.70000 507.597
21.87000 614.847
22.04000 698.470
22.21000 594.835
22.38000 506.496
22.55000 476.776
22.72000 468.263
22.89000 428.537
23.06000 443.563
23.23000 442.780
23.40000 416.912
23.57000 428.388
23.74000 437.394
23.91000 431.159
24.08000 412.263
24.25000 430.612
24.42000 431.733
24.59000 415.005
24.76000 408.430
24.93000 422.623
25.10000 425.306
25.27000 404.242
25.44000 416.958
25.61000 392.473
25.78000 410.450
25.95000 387.176
26.12000 408.190
26.29000 396.714
26.46000 415.841
26.63000 383.932
26.80000 396.586
26.97000 391.607
27.14000 385.631
27.31000 382.919
27.48000 367.210
27.65000 376.383
27.82000 375.406
27.99000 382.509
28.16000 396.649
28.33000 388.312
28.50000 383.320
28.67000 371.546
28.84000 351.275
29.01000 361.106
29.18000 371.826
29.35000 363.574
29.52000 354.309
29.69000 372.327
29.86000 461.664
30.03000 532.128
30.20000 481.410
30.37000 439.176
30.54000 408.591
30.71000 414.404
30.88000 459.604
31.05000 716.857
31.22000 2554.622
31.39000 4807.831
31.56000 2475.944
31.73000 769.439
31.90000 440.263
32.07000 390.698
32.24000 361.567
32.41000 334.071
32.58000 344.058
32.75000 336.465
32.92000 315.231
33.09000 307.012
33.26000 320.668
33.43000 315.552
33.60000 320.208
33.77000 308.455
33.94000 285.869
34.11000 294.775
34.28000 303.218
34.45000 291.841
34.62000 283.766
34.79000 285.572
34.96000 274.741
35.13000 281.715
35.30000 279.505
35.47000 283.093
35.64000 273.333
35.81000 268.067
35.98000 263.193
36.15000 261.138
36.32000 267.487
36.49000 269.265
36.66000 275.571
36.83000 262.286
37.00000 272.233
37.17000 284.883
37.34000 275.124
37.51000 269.703
37.68000 277.208
37.85000 268.653
38.02000 261.426
38.19000 290.509
38.36000 346.026
38.53000 518.638
38.70000 629.359
38.87000 480.766
39.04000 307.331
39.21000 256.327
39.38000 257.431
39.55000 241.459
39.72000 231.859
39.89000 241.206
40.06000 245.096
40.23000 232.222
40.40000 241.273
40.57000 228.849
40.74000 237.619
40.91000 234.396
41.08000 232.104
41.25000 231.089
41.42000 207.006
41.59000 218.578
41.76000 218.385
41.93000 198.545
42.10000 210.274
42.27000 207.277
42.44000 206.115
42.61000 211.035
42.78000 199.354
42.95000 210.248
43.12000 217.718
43.29000 202.941
43.46000 207.444
43.63000 212.416
43.80000 197.879
43.97000 204.065
44.14000 191.774
44.31000 203.147
44.48000 216.478
44.65000 267.718
44.82000 338.927
44.99000 392.439
45.16000 356.392
45.33000 290.155
45.50000 221.007
45.67000 218.347
45.84000 200.821
46.01000 192.763
46.18000 184.504
46.35000 170.665
46.52000 172.404
46.69000 167.833
46.86000 172.085
47.03000 172.382
47.20000 162.449
47.37000 175.071
47.54000 170.303
47.71000 164.760
47.88000 166.428
48.05000 173.821
48.22000 166.770
48.39000 172.014
48.56000 167.681
48.73000 162.850
48.90000 166.807
49.07000 160.246
49.24000 158.308
49.41000 158.154
49.58000 163.271
49.75000 151.292
49.92000 176.439
50.09000 171.379
50.26000 181.249
50.43000 209.932
50.60000 259.044
50.77000 247.057
50.94000 203.659
51.11000 181.523
51.28000 171.065
51.45000 161.583
51.62000 158.096
51.79000 157.213
51.96000 149.491
52.13000 141.728
52.30000 142.047
52.47000 154.239
52.64000 146.695
52.81000 151.000
52.98000 146.126
53.15000 160.628
53.32000 145.687
53.49000 151.604
53.66000 142.323
53.83000 142.423
54.00000 140.300
54.17000 150.187
54.34000 145.913
54.51000 143.429
54.68000 146.992
54.85000 152.023
55.02000 142.705
55.19000 159.827
55.36000 174.162
55.53000 235.171
55.70000 386.866
55.87000 513.282
56.04000 430.194
56.21000 269.448
56.38000 206.347
56.55000 157.235
56.72000 144.974
56.89000 144.140
57.06000 140.273
57.23000 120.286
57.40000 131.749
57.57000 124.976
57.74000 129.532
57.91000 127.143
58.08000 122.121
58.25000 130.170
58.42000 128.655
58.59000 123.765
58.76000 114.130
58.93000 122.421
59.10000 120.089
59.27000 123.462
59.44000 116.484
59.61000 118.129
59.78000 127.782
59.95000 113.234
60.12000 119.999
60.29000 108.321
60.46000 118.770
60.63000 113.968
60.80000 116.957
60.97000 122.649
61.14000 134.877
61.31000 132.633
61.48000 138.792
61.65000 420.169
61.82000 265.663
61.99000 140.135
62.16000 137.265
62.33000 145.706
62.50000 147.954
62.67000 147.823
62.84000 143.825
63.01000 136.429
63.18000 131.916
63.35000 144.902
63.52000 141.701
63.69000 147.223
63.86000 145.239
64.03000 157.766
64.20000 156.194
64.37000 176.103
64.54000 178.563
64.71000 181.902
64.88000 206.418
65.05000 237.516
65.22000 306.067
65.39000 478.037
65.56000 639.276
65.73000 1722.137
65.90000 3385.603
66.07000 790.842
66.24000 546.808
66.41000 929.181
66.58000 604.161
66.75000 478.394
66.92000 473.990
67.09000 471.961
67.26000 498.223
67.43000 527.941
67.60000 556.998
67.77000 604.862
67.94000 626.990
68.11000 673.341
68.28000 736.551
68.45000 894.294
68.62000 1266.297
68.79000 2506.245
68.96000 15491.552
69.13000 80877.016
69.30000 46122.863
69.47000 12388.065
69.64000 1358.228
69.81000 823.271
69.98000 624.368
70.00000 605.846

File: BTO_Mapping_Theta2Theta_09-10-2025_001_46_-1-045_-9-945.xy
20.00000 480.246
20.17000 499.555
20.34000 488.207
20.51000 487.647
20.68000 474.598
20.85000 498.703
21.02000 488.616
21.19000 489.674
21.36000 476.629
21.53000 476.148
21.70000 497.833
21.87000 562.701
22.04000 651.837
22.21000 618.361
22.38000 522.006
22.55000 482.495
22.72000 450.769
22.89000 450.338
23.06000 463.256
23.23000 430.065
23.40000 439.658
23.57000 425.906
23.74000 445.185
23.91000 434.898
24.08000 430.816
24.25000 420.720
24.42000 431.857
24.59000 414.777
24.76000 430.250
24.93000 413.219
25.10000 417.556
25.27000 397.410
25.44000 393.178
25.61000 408.348
25.78000 392.830
25.95000 421.618
26.12000 401.664
26.29000 367.488
26.46000 396.757
26.63000 405.926
26.80000 367.481
26.97000 390.078
27.14000 381.070
27.31000 377.427
27.48000 380.213
27.65000 373.368
27.82000 376.354
27.99000 373.990
28.16000 379.409
28.33000 388.336
28.50000 377.765
28.67000 351.621
28.84000 346.780
29.01000 374.735
29.18000 350.317
29.35000 371.734
29.52000 356.200
29.69000 393.323
29.86000 407.618
30.03000 460.028
30.20000 433.973
30.37000 406.445
30.54000 410.560
30.71000 436.541
30.88000 453.497
31.05000 661.663
31.22000 1692.259
31.39000 3166.569
31.56000 1860.329
31.73000 685.799
31.90000 468.429
32.07000 390.338
32.24000 360.107
32.41000 346.222
32.58000 339.256
32.75000 333.411
32.92000 334.380
33.09000 325.478
33.26000 311.283
33.43000 322.358
33.60000 293.794
33.77000 306.028
33.94000 294.998
34.11000 293.907
34.28000 290.468
34.45000 295.672
34.62000 295.612
34.79000 290.142
34.96000 271.691
35.13000 289.786
35.30000 283.408
35.47000 282.578
35.64000 268.716
35.81000 274.560
35.98000 263.510
36.15000 258.400
36.32000 262.740
36.49000 268.495
36.66000 277.058
36.83000 283.787
37.00000 297.796
37.17000 282.095
37.34000 273.618
37.51000 278.137
37.68000 262.577
37.85000 250.199
38.02000 274.932
38.19000 296.648
38.36000 320.668
38.53000 588.601
38.70000 1057.758
38.87000 708.952
39.04000 372.661
39.21000 253.078
39.38000 260.248
39.55000 251.842
39.72000 237.090
39.89000 241.211
40.06000 220.735
40.23000 232.703
40.40000 231.679
40.57000 212.466
40.74000 225.512
40.91000 225.978
41.08000 226.409
41.25000 222.265
41.42000 219.768
41.59000 213.679
41.76000 214.326
41.93000 211.293
42.10000 191.593
42.27000 219.551
42.44000 205.982
42.61000 197.858
42.78000 202.698
42.95000 208.559
43.12000 203.212
43.29000 200.716
43.46000 200.678
43.63000 196.782
43.80000 188.762
43.97000 197.412
44.14000 196.019
44.31000 194.216
44.48000 206.863
44.65000 220.479
44.82000 263.930
44.99000 340.491
45.16000 353.070
45.33000 313.343
45.50000 261.762
45.67000 213.745
45.84000 204.978
46.01000 172.411
46.18000 180.957
46.35000 172.330
46.52000 173.208
46.69000 178.210
46.86000 181.063
47.03000 169.106
47.20000 172.956
47.37000 167.717
47.54000 160.806
47.71000 168.673
47.88000 172.865
48.05000 156.759
48.22000 148.655
48.39000 164.676
48.56000 160.475
48.73000 161.763
48.90000 169.048
49.07000 154.203
49.24000 165.941
49.41000 147.444
49.58000 156.917
49.75000 155.975
49.92000 155.553
50.09000 147.326
50.26000 161.546
50.43000 173.438
50.60000 206.692
50.77000 239.389
50.94000 198.715
51.11000 163.919
51.28000 160.827
51.45000 143.703
51.62000 144.404
51.79000 151.428
51.96000 144.627
52.13000 140.611
52.30000 143.231
52.47000 142.803
52.64000 140.092
52.81000 140.607
52.98000 140.529
53.15000 145.440
53.32000 159.325
53.49000 162.487
53.66000 143.747
53.83000 141.751
54.00000 124.399
54.17000 135.693
54.34000 146.327
54.51000 132.174
54.68000 145.570
54.85000 134.494
55.02000 149.581
55.19000 146.698
55.36000 164.266
55.53000 184.814
55.70000 267.482
55.87000 511.209
56.04000 524.961
56.21000 350.849
56.38000 214.296
56.55000 170.446
56.72000 148.996
56.89000 142.232
57.06000 132.474
57.23000 143.827
57.40000 132.811
57.57000 125.124
57.74000 127.232
57.91000 128.414
58.08000 126.828
58.25000 125.370
58.42000 119.989
58.59000 124.592
58.76000 126.740
58.93000 120.902
59.10000 123.185
59.27000 118.722
59.44000 113.165
59.61000 120.269
59.78000 118.077
59.95000 120.426
60.12000 118.152
60.29000 122.802
60.46000 111.053
60.63000 122.392
60.80000 115.597
60.97000 116.288
61.14000 127.994
61.31000 121.130
61.48000 143.765
61.65000 381.737
61.82000 229.459
61.99000 139.553
62.16000 128.729
62.33000 131.013
62.50000 124.421
62.67000 141.608
62.84000 132.201
63.01000 139.682
63.18000 144.644
63.35000 132.577
63.52000 151.229
63.69000 148.553
63.86000 151.456
64.03000 149.089
64.20000 161.690
64.37000 167.478
64.54000 175.263
64.71000 172.548
64.88000 191.412
65.05000 220.364
65.22000 267.252
65.39000 356.460
65.56000 524.189
65.73000 1620.080
65.90000 2844.076
66.07000 640.642
66.24000 512.362
66.41000 838.987
66.58000 507.547
66.75000 417.062
66.92000 426.607
67.09000 460.231
67.26000 488.524
67.43000 472.961
67.60000 530.330
67.77000 573.647
67.94000 576.335
68.11000 622.026
68.28000 701.844
68.45000 811.806
68.62000 1200.903
68.79000 2283.063
68.96000 16558.918
69.13000 69064.070
69.30000 36656.320
69.47000 8142.272
69.64000 1169.598
69.81000 731.441
69.98000 574.886
70.00000 579.382

File: BTO_Mapping_Theta2Theta_09-10-2025_001_47_-2-091_-19-890.xy
20.00000 482.796
20.17000 493.342
20.34000 476.079
20.51000 471.493
20.68000 489.747
20.85000 491.762
21.02000 510.581
21.19000 494.693
21.36000 499.499
21.53000 478.621
21.70000 527.353
21.87000 570.391
22.04000 674.016
22.21000 615.043
22.38000 529.036
22.55000 460.230
22.72000 450.601
22.89000 458.102
23.06000 444.099
23.23000 441.010
23.40000 438.423
23.57000 433.668
23.74000 447.050
23.91000 421.350
24.08000 435.763
24.25000 419.426
24.42000 413.240
24.59000 417.560
24.76000 401.712
24.93000 402.923
25.10000 420.219
25.27000 418.337
25.44000 397.842
25.61000 424.971
25.78000 401.048
25.95000 397.541
26.12000 385.775
26.29000 396.149
26.46000 391.914
26.63000 383.353
26.80000 388.593
26.97000 378.532
27.14000 387.257
27.31000 387.821
27.48000 370.186
27.65000 363.915
27.82000 377.986
27.99000 385.379
28.16000 380.395
28.33000 368.853
28.50000 358.477
28.67000 374.757
28.84000 387.985
29.01000 354.313
29.18000 367.337
29.35000 364.552
29.52000 355.579
29.69000 363.658
29.86000 410.450
30.03000 457.331
30.20000 432.935
30.37000 409.389
30.54000 393.290
30.71000 411.739
30.88000 463.173
31.05000 654.411
31.22000 1630.510
31.39000 3100.421
31.56000 1898.356
31.73000 717.476
31.90000 444.713
32.07000 380.531
32.24000 357.320
32.41000 360.749
32.58000 339.527
32.75000 338.014
32.92000 345.001
33.09000 314.678
33.26000 310.849
33.43000 309.778
33.60000 301.030
33.77000 310.236
33.94000 294.282
34.11000 298.803
34.28000 296.878
34.45000 291.436
34.62000 275.227
34.79000 270.297
34.96000 276.047
35.13000 271.085
35.30000 274.419
35.47000 280.523
35.64000 265.677
35.81000 284.778
35.98000 273.273
36.15000 262.952
36.32000 263.857
36.49000 276.877
36.66000 259.938
36.83000 276.827
37.00000 299.320
37.17000 282.016
37.34000 259.975
37.51000 265.898
37.68000 248.691
37.85000 250.602
38.02000 255.752
38.19000 278.730
38.36000 342.046
38.53000 598.381
38.70000 1018.308
38.87000 682.269
39.04000 319.198
39.21000 282.244
39.38000 246.218
39.55000 248.198
39.72000 238.203
39.89000 228.277
40.06000 227.309
40.23000 228.038
40.40000 229.465
40.57000 218.192
40.74000 240.573
40.91000 219.912
41.08000 217.189
41.25000 214.850
41.42000 209.782
41.59000 210.173
41.76000 219.686
41.93000 208.143
42.10000 230.689
42.27000 207.763
42.44000 188.402
42.61000 203.130
42.78000 203.489
42.95000 205.500
43.12000 203.793
43.29000 210.052
43.46000 211.503
43.63000 201.426
43.80000 197.057
43.97000 204.125
44.14000 205.382
44.31000 197.473
44.48000 207.514
44.65000 216.328
44.82000 267.841
44.99000 351.108
45.16000 401.424
45.33000 307.984
45.50000 263.974
45.67000 215.159
45.84000 209.135
46.01000 196.807
46.18000 187.624
46.35000 181.860
46.52000 180.015
46.69000 177.182
46.86000 177.126
47.03000 183.405
47.20000 161.495
47.37000 173.972
47.54000 171.006
47.71000 161.224
47.88000 167.200
48.05000 159.068
48.22000 173.233
48.39000 149.192
48.56000 154.762
48.73000 166.534
48.90000 156.969
49.07000 151.345
49.24000 161.331
49.41000 163.401
49.58000 154.575
49.75000 158.204
49.92000 162.755
50.09000 161.133
50.26000 164.846
50.43000 179.553
50.60000 217.418
50.77000 235.736
50.94000 213.409
51.11000 167.139
51.28000 160.904
51.45000 150.339
51.62000 146.178
51.79000 154.270
51.96000 143.152
52.13000 156.207
52.30000 133.643
52.47000 128.165
52.64000 147.394
52.81000 140.708
52.98000 135.731
53.15000 142.910
53.32000 147.256
53.49000 156.208
53.66000 152.769
53.83000 146.211
54.00000 141.033
54.17000 138.082
54.34000 148.811
54.51000 147.956
54.68000 144.034
54.85000 148.893
55.02000 149.489
55.19000 159.230
55.36000 170.546
55.53000 198.845
55.70000 293.988
55.87000 518.831
56.04000 540.486
56.21000 355.667
56.38000 223.016
56.55000 178.608
56.72000 141.971
56.89000 130.782
57.06000 128.721
57.23000 120.378
57.40000 127.591
57.57000 129.665
57.74000 132.263
57.91000 125.032
58.08000 126.192
58.25000 118.478
58.42000 127.009
58.59000 119.575
58.76000 129.953
58.93000 122.327
59.10000 123.732
59.27000 115.995
59.44000 115.269
59.61000 117.690
59.78000 117.357
59.95000 121.606
60.12000 116.909
60.29000 116.780
60.46000 120.117
60.63000 123.012
60.80000 116.399
60.97000 119.504
61.14000 126.059
61.31000 128.433
61.48000 142.018
61.65000 383.158
61.82000 230.941
61.99000 147.786
62.16000 131.973
62.33000 135.337
62.50000 143.268
62.67000 136.366
62.84000 131.750
63.01000 144.425
63.18000 154.116
63.35000 137.594
63.52000 137.396
63.69000 148.406
63.86000 150.088
64.03000 153.559
64.20000 155.677
64.37000 164.673
64.54000 182.674
64.71000 190.944
64.88000 205.376
65.05000 229.112
65.22000 252.968
65.39000 360.842
65.56000 525.858
65.73000 1695.946
65.90000 2994.609
66.07000 698.734
66.24000 516.866
66.41000 888.170
66.58000 547.717
66.75000 436.805
66.92000 451.015
67.09000 484.083
67.26000 507.524
67.43000 533.249
67.60000 534.506
67.77000 584.173
67.94000 608.467
68.11000 650.989
68.28000 728.432
68.45000 843.787
68.62000 1242.310
68.79000 2367.347
68.96000 16979.580
69.13000 73663.906
69.30000 39705.430
69.47000 9073.682
69.64000 1253.749
69.81000 759.564
69.98000 613.298
70.00000 610.096

File: BTO_Mapping_Theta2Theta_09-10-2025_001_48_-3-136_-29-836.xy
20.00000 503.451
20.17000 495.701
20.34000 494.139
20.51000 483.449
20.68000 485.359
20.85000 495.623
21.02000 485.770
21.19000 480.386
21.36000 478.631
21.53000 480.547
21.70000 493.974
21.87000 575.348
22.04000 677.133
22.21000 620.289
22.38000 528.373
22.55000 470.984
22.72000 453.655
22.89000 452.978
23.06000 437.152
23.23000 438.770
23.40000 445.303
23.57000 443.582
23.74000 433.039
23.91000 424.008
24.08000 426.168
24.25000 425.755
24.42000 434.369
24.59000 418.009
24.76000 420.563
24.93000 410.137
25.10000 402.148
25.27000 400.897
25.44000 415.759
25.61000 391.417
25.78000 393.753
25.95000 408.306
26.12000 397.599
26.29000 396.058
26.46000 400.561
26.63000 387.902
26.80000 386.515
26.97000 387.150
27.14000 391.118
27.31000 394.753
27.48000 375.246
27.65000 390.117
27.82000 371.283
27.99000 378.045
28.16000 367.306
28.33000 385.555
28.50000 363.475
28.67000 375.569
28.84000 350.408
29.01000 354.622
29.18000 360.350
29.35000 364.230
29.52000 359.018
29.69000 385.237
29.86000 404.752
30.03000 452.301
30.20000 437.651
30.37000 409.250
30.54000 409.265
30.71000 413.987
30.88000 432.021
31.05000 638.778
31.22000 1565.796
31.39000 3042.587
31.56000 1939.039
31.73000 752.621
31.90000 455.201
32.07000 379.423
32.24000 353.669
32.41000 340.844
32.58000 335.963
32.75000 323.181
32.92000 327.899
33.09000 315.397
33.26000 300.711
33.43000 309.672
33.60000 289.182
33.77000 297.913
33.94000 293.855
34.11000 292.794
34.28000 289.868
34.45000 313.609
34.62000 276.987
34.79000 292.408
34.96000 276.213
35.13000 273.349
35.30000 283.159
35.47000 279.184
35.64000 274.485
35.81000 273.730
35.98000 262.444
36.15000 270.767
36.32000 268.886
36.49000 269.275
36.66000 274.767
36.83000 264.624
37.00000 281.459
37.17000 278.472
37.34000 268.832
37.51000 258.498
37.68000 278.749
37.85000 260.933
38.02000 253.267
38.19000 283.809
38.36000 320.618
38.53000 564.557
38.70000 969.392
38.87000 672.438
39.04000 348.442
39.21000 293.849
39.38000 255.946
39.55000 249.485
39.72000 236.253
39.89000 227.694
40.06000 237.719
40.23000 222.032
40.40000 226.642
40.57000 226.567
40.74000 222.708
40.91000 212.063
41.08000 213.569
41.25000 214.684
41.42000 215.404
41.59000 209.073
41.76000 208.548
41.93000 198.596
42.10000 217.523
42.27000 200.364
42.44000 211.707
42.61000 213.452
42.78000 203.782
42.95000 197.738
43.12000 212.571
43.29000 208.239
43.46000 197.915
43.63000 200.644
43.80000 207.763
43.97000 197.778
44.14000 206.202
44.31000 210.835
44.48000 212.484
44.65000 235.836
44.82000 276.695
44.99000 382.425
45.16000 371.280
45.33000 293.803
45.50000 254.927
45.67000 212.752
45.84000 217.191
46.01000 198.372
46.18000 185.177
46.35000 183.664
46.52000 173.597
46.69000 183.250
46.86000 172.790
47.03000 175.121
47.20000 164.600
47.37000 166.438
47.54000 157.697
47.71000 161.079
47.88000 161.414
48.05000 178.161
48.22000 163.016
48.39000 175.300
48.56000 167.713
48.73000 162.870
48.90000 152.177
49.07000 157.739
49.24000 164.640
49.41000 150.009
49.58000 147.982
49.75000 162.223
49.92000 164.662
50.09000 160.375
50.26000 155.341
50.43000 180.665
50.60000 219.104
50.77000 249.772
50.94000 208.161
51.11000 171.548
51.28000 167.649
51.45000 160.606
51.62000 165.339
51.79000 147.919
51.96000 136.958
52.13000 145.127
52.30000 143.166
52.47000 142.940
52.64000 136.008
52.81000 138.537
52.98000 133.654
53.15000 147.219
53.32000 156.287
53.49000 159.812
53.66000 154.839
53.83000 135.300
54.00000 141.410
54.17000 153.083
54.34000 141.170
54.51000 141.825
54.68000 132.875
54.85000 143.276
55.02000 144.211
55.19000 143.585
55.36000 167.135
55.53000 195.944
55.70000 291.769
55.87000 506.989
56.04000 553.023
56.21000 358.813
56.38000 227.157
56.55000 159.809
56.72000 157.625
56.89000 137.527
57.06000 136.383
57.23000 124.154
57.40000 123.303
57.57000 128.189
57.74000 128.437
57.91000 119.642
58.08000 122.914
58.25000 138.064
58.42000 126.159
58.59000 127.203
58.76000 117.700
58.93000 124.730
59.10000 126.575
59.27000 112.403
59.44000 124.727
59.61000 128.432
59.78000 119.949
59.95000 123.103
60.12000 121.796
60.29000 119.299
60.46000 129.623
60.63000 119.404
60.80000 115.252
60.97000 115.932
61.14000 125.519
61.31000 127.788
61.48000 134.301
61.65000 385.051
61.82000 236.430
61.99000 134.479
62.16000 140.157
62.33000 130.296
62.50000 140.567
62.67000 138.766
62.84000 132.975
63.01000 138.601
63.18000 147.980
63.35000 141.980
63.52000 139.361
63.69000 146.155
63.86000 143.128
64.03000 150.170
64.20000 161.767
64.37000 165.568
64.54000 178.126
64.71000 182.693
64.88000 205.369
65.05000 210.314
65.22000 263.534
65.39000 344.091
65.56000 514.788
65.73000 1695.807
65.90000 3235.679
66.07000 738.128
66.24000 547.004
66.41000 921.767
66.58000 555.177
66.75000 452.173
66.92000 451.162
67.09000 470.156
67.26000 509.098
67.43000 507.492
67.60000 574.212
67.77000 597.610
67.94000 617.367
68.11000 662.577
68.28000 725.818
68.45000 846.742
68.62000 1286.003
68.79000 2522.833
68.96000 16927.211
69.13000 76797.125
69.30000 42071.750
69.47000 10235.464
69.64000 1265.564
69.81000 774.366
69.98000 628.720
70.00000 614.181

File: BTO_Mapping_Theta2Theta_09-10-2025_001_49_-4-181_-39-781.xy
20.00000 479.202
20.17000 484.974
20.34000 473.591
20.51000 496.124
20.68000 476.171
20.85000 468.432
21.02000 474.204
21.19000 478.455
21.36000 461.551
21.53000 484.626
21.70000 498.593
21.87000 560.278
22.04000 680.034
22.21000 609.754
22.38000 525.525
22.55000 487.858
22.72000 457.544
22.89000 428.078
23.06000 435.267
23.23000 437.880
23.40000 441.957
23.57000 428.486
23.74000 437.802
23.91000 420.224
24.08000 446.191
24.25000 388.005
24.42000 397.876
24.59000 438.658
24.76000 408.190
24.93000 416.413
25.10000 400.065
25.27000 394.754
25.44000 412.927
25.61000 409.742
25.78000 384.977
25.95000 406.712
26.12000 410.444
26.29000 392.901
26.46000 389.281
26.63000 384.298
26.80000 410.352
26.97000 378.401
27.14000 388.405
27.31000 381.100
27.48000 364.944
27.65000 375.640
27.82000 379.101
27.99000 379.263
28.16000 376.717
28.33000 377.502
28.50000 368.051
28.67000 354.513
28.84000 352.904
29.01000 370.677
29.18000 366.064
29.35000 372.672
29.52000 351.995
29.69000 377.541
29.86000 391.959
30.03000 467.220
30.20000 434.278
30.37000 427.815
30.54000 416.778
30.71000 409.748
30.88000 431.699
31.05000 605.153
31.22000 1486.066
31.39000 3063.767
31.56000 2173.668
31.73000 818.245
31.90000 473.160
32.07000 360.023
32.24000 359.173
32.41000 335.590
32.58000 330.984
32.75000 325.511
32.92000 329.716
33.09000 305.821
33.26000 294.812
33.43000 305.051
33.60000 294.607
33.77000 300.043
33.94000 281.977
34.11000 298.143
34.28000 274.443
34.45000 286.324
34.62000 277.843
34.79000 272.458
34.96000 273.714
35.13000 287.405
35.30000 271.170
35.47000 278.534
35.64000 270.718
35.81000 255.265
35.98000 263.910
36.15000 269.273
36.32000 253.741
36.49000 267.753
36.66000 272.999
36.83000 279.068
37.00000 291.014
37.17000 283.463
37.34000 266.553
37.51000 261.521
37.68000 278.215
37.85000 280.518
38.02000 267.892
38.19000 273.903
38.36000 320.047
38.53000 523.045
38.70000 914.898
38.87000 658.180
39.04000 353.844
39.21000 272.177
39.38000 251.474
39.55000 243.455
39.72000 248.399
39.89000 238.838
40.06000 221.990
40.23000 236.119
40.40000 225.257
40.57000 233.523
40.74000 226.707
40.91000 228.979
41.08000 216.170
41.25000 212.087
41.42000 223.762
41.59000 204.536
41.76000 216.497
41.93000 212.613
42.10000 215.605
42.27000 208.381
42.44000 216.375
42.61000 208.548
42.78000 198.754
42.95000 204.275
43.12000 217.406
43.29000 196.684
43.46000 199.751
43.63000 210.086
43.80000 196.639
43.97000 196.451
44.14000 198.891
44.31000 201.676
44.48000 207.415
44.65000 235.850
44.82000 285.709
44.99000 350.200
45.16000 381.786
45.33000 295.642
45.50000 253.404
45.67000 209.281
45.84000 200.582
46.01000 190.639
46.18000 177.145
46.35000 181.056
46.52000 184.280
46.69000 151.943
46.86000 165.371
47.03000 167.642
47.20000 178.816
47.37000 170.191
47.54000 162.058
47.71000 165.383
47.88000 155.278
48.05000 157.447
48.22000 171.192
48.39000 174.840
48.56000 158.973
48.73000 165.213
48.90000 164.823
49.07000 150.402
49.24000 157.844
49.41000 164.608
49.58000 160.186
49.75000 153.450
49.92000 156.384
50.09000 167.682
50.26000 158.862
50.43000 186.995
50.60000 227.663
50.77000 250.970
50.94000 226.883
51.11000 180.536
51.28000 162.772
51.45000 152.698
51.62000 152.514
51.79000 154.131
51.96000 150.413
52.13000 151.550
52.30000 147.452
52.47000 147.696
52.64000 137.967
52.81000 141.300
52.98000 134.773
53.15000 145.201
53.32000 156.803
53.49000 158.520
53.66000 144.307
53.83000 145.332
54.00000 134.950
54.17000 133.367
54.34000 129.909
54.51000 135.590
54.68000 140.315
54.85000 147.151
55.02000 136.433
55.19000 152.424
55.36000 157.809
55.53000 200.712
55.70000 292.308
55.87000 503.211
56.04000 578.091
56.21000 368.805
56.38000 223.897
56.55000 180.593
56.72000 153.103
56.89000 127.732
57.06000 136.329
57.23000 130.855
57.40000 130.421
57.57000 129.811
57.74000 122.131
57.91000 128.106
58.08000 121.488
58.25000 129.724
58.42000 119.723
58.59000 120.953
58.76000 110.329
58.93000 125.371
59.10000 120.909
59.27000 115.456
59.44000 120.797
59.61000 117.961
59.78000 113.683
59.95000 123.657
60.12000 117.946
60.29000 125.468
60.46000 109.303
60.63000 109.291
60.80000 120.762
60.97000 119.796
61.14000 129.659
61.31000 123.459
61.48000 139.717
61.65000 405.481
61.82000 262.010
61.99000 141.107
62.16000 132.267
62.33000 132.478
62.50000 148.921
62.67000 139.907
62.84000 138.607
63.01000 144.815
63.18000 129.921
63.35000 144.855
63.52000 135.884
63.69000 143.083
63.86000 142.966
64.03000 139.925
64.20000 157.939
64.37000 157.178
64.54000 170.809
64.71000 203.124
64.88000 196.005
65.05000 239.412
65.22000 263.921
65.39000 350.910
65.56000 521.557
65.73000 1655.180
65.90000 3256.363
66.07000 817.967
66.24000 548.409
66.41000 934.725
66.58000 591.166
66.75000 462.156
66.92000 465.670
67.09000 484.807
67.26000 483.758
67.43000 509.405
67.60000 577.510
67.77000 585.602
67.94000 624.178
68.11000 681.709
68.28000 735.370
68.45000 860.684
68.62000 1268.564
68.79000 2526.891
68.96000 15534.370
69.13000 78842.727
69.30000 44774.523
69.47000 11846.069
69.64000 1318.351
69.81000 792.476
69.98000 617.854
70.00000 607.128