Folder: Master-Thesis/XRD/XRD/09-10-2025 Dep 8/XY Data (part 7)

File: BTO_Mapping_Theta2Theta_09-10-2025_001_59_18-271_-8-135.xy
20.00000 484.674
20.17000 480.427
20.34000 467.240
20.51000 491.268
20.68000 483.330
20.85000 475.330
21.02000 477.445
21.19000 495.194
21.36000 477.403
21.53000 472.693
21.70000 480.044
21.87000 501.025
22.04000 592.683
22.21000 596.304
22.38000 520.422
22.55000 484.483
22.72000 458.165
22.89000 439.032
23.06000 450.240
23.23000 443.939
23.40000 432.304
23.57000 430.871
23.74000 429.570
23.91000 414.464
24.08000 445.467
24.25000 439.723
24.42000 408.241
24.59000 411.784
24.76000 411.601
24.93000 406.766
25.10000 422.167
25.27000 408.614
25.44000 407.550
25.61000 412.853
25.78000 416.980
25.95000 412.829
26.12000 384.732
26.29000 380.230
26.46000 393.236
26.63000 395.355
26.80000 391.563
26.97000 392.426
27.14000 376.909
27.31000 389.261
27.48000 372.748
27.65000 385.781
27.82000 367.692
27.99000 388.765
28.16000 379.182
28.33000 371.792
28.50000 363.470
28.67000 370.316
28.84000 369.820
29.01000 355.363
29.18000 363.123
29.35000 358.611
29.52000 372.226
29.69000 385.815
29.86000 383.437
30.03000 449.990
30.20000 446.211
30.37000 382.891
30.54000 396.197
30.71000 395.257
30.88000 432.699
31.05000 573.725
31.22000 1326.332
31.39000 2788.939
31.56000 1894.782
31.73000 720.029
31.90000 460.458
32.07000 377.908
32.24000 352.970
32.41000 339.731
32.58000 334.264
32.75000 327.078
32.92000 321.303
33.09000 317.099
33.26000 313.299
33.43000 298.982
33.60000 291.401
33.77000 281.592
33.94000 293.825
34.11000 293.157
34.28000 295.902
34.45000 289.096
34.62000 285.781
34.79000 286.486
34.96000 281.154
35.13000 265.422
35.30000 269.293
35.47000 265.272
35.64000 278.087
35.81000 266.195
35.98000 259.031
36.15000 256.437
36.32000 264.516
36.49000 265.534
36.66000 262.362
36.83000 283.194
37.00000 275.850
37.17000 269.146
37.34000 261.098
37.51000 250.200
37.68000 257.325
37.85000 266.181
38.02000 269.785
38.19000 280.291
38.36000 290.456
38.53000 499.251
38.70000 1011.648
38.87000 867.557
39.04000 364.663
39.21000 264.991
39.38000 255.121
39.55000 234.432
39.72000 227.826
39.89000 232.187
40.06000 242.101
40.23000 217.462
40.40000 224.462
40.57000 220.433
40.74000 228.691
40.91000 229.490
41.08000 217.642
41.25000 217.482
41.42000 208.933
41.59000 217.819
41.76000 224.193
41.93000 215.234
42.10000 221.432
42.27000 199.413
42.44000 216.254
42.61000 196.183
42.78000 198.424
42.95000 194.469
43.12000 200.145
43.29000 204.447
43.46000 195.617
43.63000 212.364
43.80000 185.828
43.97000 201.682
44.14000 192.668
44.31000 201.489
44.48000 194.625
44.65000 189.317
44.82000 213.244
44.99000 264.875
45.16000 297.930
45.33000 267.262
45.50000 253.725
45.67000 224.496
45.84000 207.740
46.01000 193.276
46.18000 191.573
46.35000 190.109
46.52000 181.173
46.69000 175.471
46.86000 177.606
47.03000 168.039
47.20000 168.634
47.37000 177.078
47.54000 174.995
47.71000 168.441
47.88000 164.358
48.05000 152.282
48.22000 156.673
48.39000 161.379
48.56000 156.569
48.73000 156.946
48.90000 161.565
49.07000 156.181
49.24000 154.283
49.41000 161.193
49.58000 153.667
49.75000 150.384
49.92000 151.798
50.09000 156.356
50.26000 156.588
50.43000 164.787
50.60000 191.885
50.77000 219.157
50.94000 211.483
51.11000 172.445
51.28000 160.991
51.45000 151.153
51.62000 144.490
51.79000 147.523
51.96000 146.430
52.13000 144.543
52.30000 142.526
52.47000 137.798
52.64000 141.248
52.81000 128.703
52.98000 137.937
53.15000 137.986
53.32000 152.335
53.49000 156.430
53.66000 141.926
53.83000 146.081
54.00000 133.401
54.17000 134.912
54.34000 139.781
54.51000 146.547
54.68000 138.535
54.85000 138.141
55.02000 150.583
55.19000 140.132
55.36000 145.336
55.53000 180.036
55.70000 221.766
55.87000 406.815
56.04000 544.978
56.21000 375.788
56.38000 236.159
56.55000 175.494
56.72000 157.358
56.89000 131.501
57.06000 129.991
57.23000 134.554
57.40000 119.048
57.57000 117.539
57.74000 134.495
57.91000 125.963
58.08000 122.130
58.25000 120.736
58.42000 133.747
58.59000 114.712
58.76000 111.559
58.93000 118.837
59.10000 116.971
59.27000 125.631
59.44000 117.256
59.61000 123.155
59.78000 128.382
59.95000 115.658
60.12000 124.925
60.29000 119.689
60.46000 117.483
60.63000 114.503
60.80000 116.211
60.97000 121.618
61.14000 121.152
61.31000 119.696
61.48000 148.237
61.65000 316.436
61.82000 208.862
61.99000 134.202
62.16000 129.000
62.33000 135.997
62.50000 140.466
62.67000 128.674
62.84000 140.807
63.01000 143.084
63.18000 138.125
63.35000 135.294
63.52000 132.371
63.69000 152.945
63.86000 154.169
64.03000 141.898
64.20000 162.242
64.37000 151.409
64.54000 172.594
64.71000 178.966
64.88000 187.725
65.05000 206.986
65.22000 231.121
65.39000 303.334
65.56000 440.949
65.73000 1302.691
65.90000 2306.186
66.07000 559.139
66.24000 432.817
66.41000 683.543
66.58000 443.628
66.75000 379.647
66.92000 394.176
67.09000 397.179
67.26000 423.496
67.43000 441.434
67.60000 477.246
67.77000 504.928
67.94000 511.161
68.11000 564.951
68.28000 597.980
68.45000 711.045
68.62000 1070.334
68.79000 1889.656
68.96000 12379.693
69.13000 54492.121
69.30000 28986.955
69.47000 6556.558
69.64000 1042.443
69.81000 688.225
69.98000 563.377
70.00000 533.956