Folder: Master-Thesis/XRD/XRD/09-10-2025 Dep 8/XY Data

File: BTO_Mapping_Theta2Theta_09-10-2025_001_02_10-000_0-000.xy
20.00000 474.701
20.17000 488.946
20.34000 499.285
20.51000 481.819
20.68000 483.770
20.85000 490.017
21.02000 486.479
21.19000 479.812
21.36000 487.963
21.53000 493.784
21.70000 489.429
21.87000 519.209
22.04000 608.740
22.21000 599.094
22.38000 548.628
22.55000 474.131
22.72000 441.717
22.89000 450.414
23.06000 423.808
23.23000 441.194
23.40000 429.237
23.57000 433.022
23.74000 447.563
23.91000 414.088
24.08000 425.473
24.25000 428.856
24.42000 417.722
24.59000 424.915
24.76000 399.097
24.93000 420.432
25.10000 396.360
25.27000 396.116
25.44000 402.843
25.61000 408.139
25.78000 405.789
25.95000 409.025
26.12000 396.443
26.29000 400.443
26.46000 373.118
26.63000 400.291
26.80000 384.552
26.97000 385.235
27.14000 379.637
27.31000 372.138
27.48000 392.096
27.65000 399.634
27.82000 369.603
27.99000 383.895
28.16000 383.407
28.33000 386.637
28.50000 349.794
28.67000 363.594
28.84000 374.248
29.01000 349.465
29.18000 358.688
29.35000 362.923
29.52000 362.427
29.69000 387.434
29.86000 400.084
30.03000 440.443
30.20000 435.600
30.37000 386.269
30.54000 384.266
30.71000 413.858
30.88000 476.349
31.05000 594.445
31.22000 1520.434
31.39000 3074.601
31.56000 1954.354
31.73000 707.272
31.90000 464.726
32.07000 381.209
32.24000 362.863
32.41000 333.819
32.58000 322.152
32.75000 324.102
32.92000 344.245
33.09000 301.215
33.26000 313.531
33.43000 314.738
33.60000 303.628
33.77000 311.316
33.94000 297.311
34.11000 276.865
34.28000 278.010
34.45000 303.379
34.62000 300.032
34.79000 286.674
34.96000 270.697
35.13000 280.888
35.30000 275.975
35.47000 276.994
35.64000 273.981
35.81000 269.389
35.98000 262.301
36.15000 276.480
36.32000 256.373
36.49000 271.358
36.66000 270.407
36.83000 256.985
37.00000 287.015
37.17000 266.232
37.34000 263.001
37.51000 249.463
37.68000 267.714
37.85000 273.541
38.02000 277.396
38.19000 280.966
38.36000 306.372
38.53000 511.355
38.70000 1014.478
38.87000 799.537
39.04000 347.254
39.21000 264.867
39.38000 250.244
39.55000 237.458
39.72000 242.985
39.89000 227.093
40.06000 226.816
40.23000 233.952
40.40000 226.763
40.57000 224.287
40.74000 217.847
40.91000 222.792
41.08000 216.765
41.25000 207.617
41.42000 205.573
41.59000 202.565
41.76000 208.060
41.93000 200.968
42.10000 207.008
42.27000 217.580
42.44000 209.894
42.61000 192.836
42.78000 201.568
42.95000 196.679
43.12000 218.937
43.29000 193.295
43.46000 203.236
43.63000 187.627
43.80000 216.604
43.97000 186.593
44.14000 204.231
44.31000 199.763
44.48000 186.295
44.65000 211.069
44.82000 224.359
44.99000 265.212
45.16000 295.132
45.33000 285.798
45.50000 256.315
45.67000 225.499
45.84000 204.467
46.01000 200.405
46.18000 178.182
46.35000 182.769
46.52000 184.862
46.69000 181.024
46.86000 180.415
47.03000 166.934
47.20000 164.750
47.37000 164.896
47.54000 158.929
47.71000 159.211
47.88000 157.426
48.05000 159.636
48.22000 152.830
48.39000 162.786
48.56000 154.105
48.73000 163.575
48.90000 160.719
49.07000 157.415
49.24000 152.695
49.41000 156.195
49.58000 154.217
49.75000 150.380
49.92000 156.187
50.09000 161.746
50.26000 160.844
50.43000 164.145
50.60000 210.304
50.77000 241.340
50.94000 205.896
51.11000 174.056
51.28000 164.344
51.45000 159.887
51.62000 154.670
51.79000 143.878
51.96000 148.175
52.13000 146.245
52.30000 143.465
52.47000 139.196
52.64000 135.236
52.81000 141.882
52.98000 152.817
53.15000 140.351
53.32000 151.603
53.49000 152.404
53.66000 149.969
53.83000 147.163
54.00000 133.452
54.17000 132.442
54.34000 132.099
54.51000 135.431
54.68000 135.146
54.85000 145.266
55.02000 144.727
55.19000 137.083
55.36000 157.431
55.53000 164.924
55.70000 229.679
55.87000 441.781
56.04000 565.037
56.21000 382.136
56.38000 222.155
56.55000 172.487
56.72000 148.993
56.89000 140.670
57.06000 135.882
57.23000 130.399
57.40000 127.097
57.57000 131.259
57.74000 135.548
57.91000 125.027
58.08000 121.983
58.25000 123.979
58.42000 119.285
58.59000 134.707
58.76000 113.050
58.93000 121.439
59.10000 118.597
59.27000 121.501
59.44000 118.304
59.61000 111.963
59.78000 114.464
59.95000 117.192
60.12000 116.524
60.29000 131.072
60.46000 120.806
60.63000 116.700
60.80000 122.477
60.97000 128.083
61.14000 123.014
61.31000 127.558
61.48000 149.371
61.65000 329.835
61.82000 201.352
61.99000 130.131
62.16000 129.857
62.33000 130.406
62.50000 137.578
62.67000 134.982
62.84000 130.318
63.01000 142.333
63.18000 140.422
63.35000 146.116
63.52000 146.903
63.69000 140.891
63.86000 153.532
64.03000 155.922
64.20000 159.160
64.37000 156.444
64.54000 165.792
64.71000 161.407
64.88000 200.648
65.05000 197.018
65.22000 226.512
65.39000 327.992
65.56000 475.443
65.73000 1384.083
65.90000 2271.552
66.07000 519.522
66.24000 457.640
66.41000 710.364
66.58000 440.623
66.75000 387.720
66.92000 399.836
67.09000 417.900
67.26000 451.540
67.43000 444.502
67.60000 468.029
67.77000 482.598
67.94000 541.634
68.11000 561.422
68.28000 612.647
68.45000 724.574
68.62000 1072.288
68.79000 1982.001
68.96000 14017.425
69.13000 56438.504
69.30000 29610.166
69.47000 6301.561
69.64000 1026.968
69.81000 676.218
69.98000 530.508
70.00000 526.274

File: BTO_Mapping_Theta2Theta_09-10-2025_001_03_20-000_0-000.xy
20.00000 525.501
20.17000 496.246
20.34000 486.429
20.51000 484.564
20.68000 469.686
20.85000 466.404
21.02000 473.255
21.19000 469.144
21.36000 471.190
21.53000 479.049
21.70000 491.629
21.87000 536.175
22.04000 570.676
22.21000 572.531
22.38000 512.756
22.55000 479.209
22.72000 434.314
22.89000 434.469
23.06000 436.581
23.23000 439.058
23.40000 438.345
23.57000 427.452
23.74000 428.688
23.91000 420.011
24.08000 449.488
24.25000 419.337
24.42000 426.928
24.59000 413.699
24.76000 413.046
24.93000 414.709
25.10000 416.455
25.27000 400.328
25.44000 396.840
25.61000 391.951
25.78000 401.777
25.95000 393.487
26.12000 402.322
26.29000 397.537
26.46000 385.588
26.63000 383.994
26.80000 375.390
26.97000 375.996
27.14000 379.661
27.31000 371.048
27.48000 369.912
27.65000 371.336
27.82000 367.079
27.99000 366.073
28.16000 368.504
28.33000 384.861
28.50000 352.901
28.67000 352.416
28.84000 375.089
29.01000 378.898
29.18000 367.007
29.35000 361.028
29.52000 369.356
29.69000 365.829
29.86000 386.762
30.03000 432.857
30.20000 425.380
30.37000 414.146
30.54000 375.068
30.71000 401.936
30.88000 430.624
31.05000 551.493
31.22000 1214.896
31.39000 2646.070
31.56000 1799.198
31.73000 692.671
31.90000 461.304
32.07000 363.040
32.24000 340.859
32.41000 343.866
32.58000 332.560
32.75000 319.140
32.92000 307.882
33.09000 323.150
33.26000 302.581
33.43000 298.816
33.60000 292.881
33.77000 303.462
33.94000 285.368
34.11000 288.513
34.28000 283.625
34.45000 287.021
34.62000 273.488
34.79000 286.879
34.96000 302.115
35.13000 259.950
35.30000 270.114
35.47000 281.576
35.64000 257.881
35.81000 262.226
35.98000 268.348
36.15000 265.226
36.32000 264.176
36.49000 256.571
36.66000 255.610
36.83000 273.711
37.00000 269.609
37.17000 284.489
37.34000 256.637
37.51000 251.211
37.68000 257.590
37.85000 255.360
38.02000 261.325
38.19000 256.226
38.36000 297.691
38.53000 453.499
38.70000 919.920
38.87000 808.785
39.04000 359.076
39.21000 251.700
39.38000 261.252
39.55000 234.346
39.72000 243.644
39.89000 233.839
40.06000 246.700
40.23000 230.165
40.40000 222.254
40.57000 218.133
40.74000 224.018
40.91000 223.740
41.08000 214.769
41.25000 216.677
41.42000 208.561
41.59000 208.740
41.76000 208.392
41.93000 202.412
42.10000 224.950
42.27000 202.983
42.44000 212.493
42.61000 205.169
42.78000 207.617
42.95000 206.930
43.12000 211.594
43.29000 192.429
43.46000 211.832
43.63000 202.306
43.80000 205.404
43.97000 183.262
44.14000 183.856
44.31000 198.418
44.48000 198.177
44.65000 210.327
44.82000 206.271
44.99000 241.434
45.16000 275.753
45.33000 269.333
45.50000 246.017
45.67000 226.153
45.84000 215.720
46.01000 190.601
46.18000 189.842
46.35000 174.478
46.52000 176.205
46.69000 180.019
46.86000 165.250
47.03000 166.807
47.20000 172.808
47.37000 171.509
47.54000 155.944
47.71000 169.947
47.88000 168.216
48.05000 163.800
48.22000 156.297
48.39000 160.398
48.56000 167.657
48.73000 167.912
48.90000 160.992
49.07000 162.311
49.24000 162.320
49.41000 169.647
49.58000 153.127
49.75000 142.260
49.92000 152.134
50.09000 154.450
50.26000 158.348
50.43000 167.835
50.60000 193.616
50.77000 239.204
50.94000 199.665
51.11000 165.729
51.28000 160.725
51.45000 157.424
51.62000 159.520
51.79000 145.754
51.96000 150.629
52.13000 144.046
52.30000 139.875
52.47000 149.650
52.64000 141.657
52.81000 135.853
52.98000 128.678
53.15000 139.542
53.32000 148.936
53.49000 157.443
53.66000 145.644
53.83000 138.882
54.00000 147.011
54.17000 138.615
54.34000 141.204
54.51000 138.837
54.68000 137.113
54.85000 143.803
55.02000 141.637
55.19000 145.397
55.36000 151.514
55.53000 172.696
55.70000 228.776
55.87000 410.854
56.04000 553.272
56.21000 406.209
56.38000 231.524
56.55000 164.872
56.72000 147.919
56.89000 133.610
57.06000 128.750
57.23000 123.901
57.40000 128.695
57.57000 114.865
57.74000 127.174
57.91000 134.274
58.08000 124.684
58.25000 127.529
58.42000 122.073
58.59000 117.290
58.76000 114.964
58.93000 122.949
59.10000 123.965
59.27000 125.093
59.44000 120.233
59.61000 120.053
59.78000 125.351
59.95000 121.852
60.12000 122.551
60.29000 124.657
60.46000 124.918
60.63000 121.660
60.80000 119.933
60.97000 125.105
61.14000 122.163
61.31000 126.774
61.48000 136.337
61.65000 318.526
61.82000 202.901
61.99000 135.437
62.16000 135.198
62.33000 131.435
62.50000 135.573
62.67000 136.363
62.84000 130.650
63.01000 132.899
63.18000 132.969
63.35000 130.459
63.52000 134.726
63.69000 147.897
63.86000 146.221
64.03000 149.908
64.20000 148.165
64.37000 157.955
64.54000 157.704
64.71000 174.352
64.88000 177.473
65.05000 202.235
65.22000 231.045
65.39000 298.102
65.56000 427.866
65.73000 1305.774
65.90000 2207.110
66.07000 561.969
66.24000 434.307
66.41000 689.822
66.58000 425.204
66.75000 365.964
66.92000 386.935
67.09000 404.913
67.26000 444.454
67.43000 431.452
67.60000 464.956
67.77000 497.152
67.94000 517.509
68.11000 562.467
68.28000 623.278
68.45000 733.969
68.62000 1026.140
68.79000 1918.388
68.96000 13022.816
69.13000 53350.078
69.30000 28018.689
69.47000 6089.622
69.64000 1025.877
69.81000 655.582
69.98000 531.764
70.00000 530.808

File: BTO_Mapping_Theta2Theta_09-10-2025_001_07_18-271_8-135.xy
20.00000 470.301
20.17000 487.604
20.34000 478.251
20.51000 488.490
20.68000 479.100
20.85000 492.580
21.02000 476.282
21.19000 467.377
21.36000 481.831
21.53000 473.382
21.70000 497.434
21.87000 502.140
22.04000 550.549
22.21000 583.075
22.38000 539.515
22.55000 488.720
22.72000 454.944
22.89000 449.345
23.06000 455.727
23.23000 450.369
23.40000 447.999
23.57000 439.971
23.74000 444.167
23.91000 428.495
24.08000 429.273
24.25000 414.517
24.42000 416.993
24.59000 425.201
24.76000 418.167
24.93000 409.259
25.10000 403.754
25.27000 412.570
25.44000 405.170
25.61000 381.336
25.78000 396.111
25.95000 404.290
26.12000 390.348
26.29000 397.705
26.46000 400.646
26.63000 395.997
26.80000 396.166
26.97000 379.405
27.14000 399.163
27.31000 384.127
27.48000 374.064
27.65000 381.456
27.82000 364.481
27.99000 370.637
28.16000 364.534
28.33000 373.275
28.50000 350.906
28.67000 384.813
28.84000 365.116
29.01000 373.006
29.18000 354.775
29.35000 349.559
29.52000 354.933
29.69000 366.514
29.86000 383.665
30.03000 443.409
30.20000 398.076
30.37000 396.581
30.54000 382.979
30.71000 412.131
30.88000 423.766
31.05000 546.599
31.22000 1199.514
31.39000 2590.061
31.56000 1819.082
31.73000 711.861
31.90000 430.918
32.07000 372.738
32.24000 350.950
32.41000 346.725
32.58000 339.531
32.75000 329.421
32.92000 324.493
33.09000 304.883
33.26000 293.805
33.43000 305.368
33.60000 300.420
33.77000 292.483
33.94000 302.138
34.11000 294.870
34.28000 281.181
34.45000 282.430
34.62000 271.754
34.79000 291.099
34.96000 263.734
35.13000 266.442
35.30000 265.412
35.47000 284.168
35.64000 269.640
35.81000 269.172
35.98000 260.246
36.15000 254.160
36.32000 249.625
36.49000 262.792
36.66000 255.171
36.83000 274.075
37.00000 275.601
37.17000 274.996
37.34000 257.487
37.51000 262.105
37.68000 249.862
37.85000 266.993
38.02000 254.528
38.19000 272.301
38.36000 284.861
38.53000 447.077
38.70000 907.895
38.87000 791.047
39.04000 375.876
39.21000 267.969
39.38000 246.069
39.55000 237.336
39.72000 234.889
39.89000 238.630
40.06000 218.966
40.23000 233.714
40.40000 224.365
40.57000 231.909
40.74000 221.415
40.91000 209.645
41.08000 211.461
41.25000 220.053
41.42000 222.967
41.59000 208.482
41.76000 210.664
41.93000 210.461
42.10000 209.191
42.27000 201.224
42.44000 196.871
42.61000 200.037
42.78000 206.097
42.95000 193.096
43.12000 210.182
43.29000 194.711
43.46000 187.814
43.63000 207.441
43.80000 190.501
43.97000 202.871
44.14000 197.163
44.31000 192.330
44.48000 193.177
44.65000 200.087
44.82000 217.374
44.99000 251.397
45.16000 290.504
45.33000 276.599
45.50000 248.363
45.67000 235.434
45.84000 212.221
46.01000 184.698
46.18000 192.432
46.35000 180.794
46.52000 183.100
46.69000 176.031
46.86000 182.834
47.03000 181.963
47.20000 167.247
47.37000 155.774
47.54000 166.249
47.71000 154.864
47.88000 165.611
48.05000 172.868
48.22000 163.312
48.39000 164.949
48.56000 168.801
48.73000 151.747
48.90000 157.436
49.07000 150.070
49.24000 144.377
49.41000 145.633
49.58000 165.088
49.75000 156.093
49.92000 156.852
50.09000 156.724
50.26000 149.912
50.43000 180.478
50.60000 199.439
50.77000 225.743
50.94000 212.408
51.11000 172.985
51.28000 157.445
51.45000 153.869
51.62000 157.494
51.79000 144.758
51.96000 151.429
52.13000 142.181
52.30000 141.182
52.47000 142.179
52.64000 143.055
52.81000 149.365
52.98000 146.842
53.15000 143.559
53.32000 146.802
53.49000 147.110
53.66000 147.325
53.83000 141.968
54.00000 141.171
54.17000 139.955
54.34000 132.291
54.51000 144.231
54.68000 124.048
54.85000 140.971
55.02000 142.728
55.19000 145.206
55.36000 148.563
55.53000 172.256
55.70000 215.476
55.87000 412.432
56.04000 550.611
56.21000 389.954
56.38000 231.093
56.55000 175.258
56.72000 138.008
56.89000 140.421
57.06000 131.626
57.23000 129.564
57.40000 130.807
57.57000 129.543
57.74000 126.524
57.91000 123.883
58.08000 128.248
58.25000 118.957
58.42000 124.664
58.59000 109.997
58.76000 126.704
58.93000 120.990
59.10000 112.967
59.27000 116.617
59.44000 118.754
59.61000 123.189
59.78000 113.238
59.95000 133.346
60.12000 127.741
60.29000 118.078
60.46000 115.475
60.63000 123.199
60.80000 124.653
60.97000 118.455
61.14000 123.986
61.31000 129.278
61.48000 141.991
61.65000 325.028
61.82000 193.303
61.99000 132.905
62.16000 122.609
62.33000 133.147
62.50000 128.823
62.67000 137.024
62.84000 131.385
63.01000 128.038
63.18000 145.669
63.35000 131.092
63.52000 145.477
63.69000 134.110
63.86000 137.519
64.03000 148.983
64.20000 147.718
64.37000 159.744
64.54000 165.737
64.71000 175.852
64.88000 185.958
65.05000 199.168
65.22000 229.612
65.39000 291.301
65.56000 415.330
65.73000 1301.696
65.90000 2231.682
66.07000 537.931
66.24000 436.558
66.41000 676.390
66.58000 440.474
66.75000 372.954
66.92000 395.122
67.09000 404.855
67.26000 413.312
67.43000 450.856
67.60000 466.534
67.77000 486.845
67.94000 507.599
68.11000 562.482
68.28000 616.596
68.45000 712.817
68.62000 999.898
68.79000 1882.865
68.96000 12501.938
69.13000 53208.098
69.30000 28126.020
69.47000 6242.243
69.64000 1033.378
69.81000 686.698
69.98000 551.269
70.00000 547.110

File: BTO_Mapping_Theta2Theta_09-10-2025_001_08_27-406_12-202.xy
20.00000 475.830
20.17000 482.021
20.34000 471.152
20.51000 477.749
20.68000 472.161
20.85000 461.839
21.02000 477.244
21.19000 485.788
21.36000 460.940
21.53000 458.868
21.70000 459.275
21.87000 513.253
22.04000 584.517
22.21000 574.322
22.38000 518.135
22.55000 481.681
22.72000 451.214
22.89000 433.629
23.06000 426.664
23.23000 449.772
23.40000 449.253
23.57000 440.360
23.74000 454.324
23.91000 445.800
24.08000 440.403
24.25000 428.474
24.42000 415.344
24.59000 415.318
24.76000 389.232
24.93000 426.136
25.10000 407.423
25.27000 418.464
25.44000 397.146
25.61000 408.155
25.78000 391.014
25.95000 390.499
26.12000 396.677
26.29000 392.340
26.46000 384.805
26.63000 396.733
26.80000 372.030
26.97000 386.509
27.14000 364.766
27.31000 388.799
27.48000 390.804
27.65000 377.338
27.82000 377.650
27.99000 386.132
28.16000 374.585
28.33000 380.674
28.50000 374.129
28.67000 360.960
28.84000 331.805
29.01000 346.766
29.18000 352.538
29.35000 345.919
29.52000 373.381
29.69000 351.803
29.86000 374.153
30.03000 414.765
30.20000 416.345
30.37000 389.117
30.54000 400.313
30.71000 378.353
30.88000 402.522
31.05000 494.221
31.22000 923.555
31.39000 1964.159
31.56000 1572.261
31.73000 683.684
31.90000 419.466
32.07000 362.313
32.24000 339.605
32.41000 345.897
32.58000 329.258
32.75000 327.856
32.92000 296.991
33.09000 313.528
33.26000 299.093
33.43000 294.776
33.60000 281.603
33.77000 293.803
33.94000 287.031
34.11000 293.984
34.28000 292.560
34.45000 302.285
34.62000 301.634
34.79000 277.009
34.96000 267.085
35.13000 279.023
35.30000 273.452
35.47000 259.789
35.64000 275.329
35.81000 251.476
35.98000 267.092
36.15000 274.731
36.32000 264.551
36.49000 254.823
36.66000 257.206
36.83000 265.149
37.00000 284.934
37.17000 284.741
37.34000 266.084
37.51000 262.315
37.68000 261.282
37.85000 254.723
38.02000 259.023
38.19000 254.582
38.36000 282.555
38.53000 396.783
38.70000 841.440
38.87000 818.451
39.04000 396.262
39.21000 268.508
39.38000 257.524
39.55000 240.407
39.72000 236.507
39.89000 230.132
40.06000 232.698
40.23000 224.893
40.40000 213.532
40.57000 213.586
40.74000 234.903
40.91000 216.182
41.08000 209.858
41.25000 216.511
41.42000 208.525
41.59000 214.115
41.76000 208.346
41.93000 215.158
42.10000 221.321
42.27000 204.864
42.44000 201.834
42.61000 203.502
42.78000 209.313
42.95000 200.003
43.12000 206.973
43.29000 199.017
43.46000 192.965
43.63000 201.066
43.80000 194.929
43.97000 187.089
44.14000 193.797
44.31000 191.229
44.48000 207.846
44.65000 206.262
44.82000 208.449
44.99000 243.631
45.16000 268.865
45.33000 254.751
45.50000 247.817
45.67000 216.766
45.84000 208.440
46.01000 197.501
46.18000 175.978
46.35000 173.203
46.52000 174.728
46.69000 176.300
46.86000 169.791
47.03000 169.689
47.20000 178.347
47.37000 169.578
47.54000 167.044
47.71000 164.915
47.88000 151.265
48.05000 175.260
48.22000 158.527
48.39000 164.045
48.56000 161.484
48.73000 154.914
48.90000 150.523
49.07000 165.114
49.24000 162.582
49.41000 141.609
49.58000 140.557
49.75000 152.222
49.92000 142.731
50.09000 157.078
50.26000 150.701
50.43000 167.877
50.60000 190.882
50.77000 191.560
50.94000 197.038
51.11000 166.782
51.28000 159.797
51.45000 143.290
51.62000 143.941
51.79000 138.942
51.96000 140.525
52.13000 143.416
52.30000 147.182
52.47000 131.076
52.64000 142.067
52.81000 141.964
52.98000 136.311
53.15000 143.593
53.32000 139.185
53.49000 151.188
53.66000 148.862
53.83000 149.296
54.00000 140.355
54.17000 134.976
54.34000 136.606
54.51000 130.364
54.68000 137.599
54.85000 136.259
55.02000 141.895
55.19000 141.530
55.36000 151.419
55.53000 162.581
55.70000 226.286
55.87000 393.359
56.04000 597.511
56.21000 449.837
56.38000 262.976
56.55000 176.802
56.72000 145.500
56.89000 143.364
57.06000 129.006
57.23000 136.489
57.40000 132.211
57.57000 127.395
57.74000 129.240
57.91000 127.541
58.08000 117.522
58.25000 121.938
58.42000 120.636
58.59000 125.416
58.76000 128.698
58.93000 115.782
59.10000 115.979
59.27000 113.999
59.44000 118.645
59.61000 115.085
59.78000 129.663
59.95000 117.980
60.12000 121.900
60.29000 113.449
60.46000 125.964
60.63000 128.278
60.80000 118.297
60.97000 125.357
61.14000 124.751
61.31000 118.795
61.48000 124.740
61.65000 278.575
61.82000 192.652
61.99000 128.346
62.16000 122.431
62.33000 132.565
62.50000 127.286
62.67000 136.364
62.84000 134.651
63.01000 140.220
63.18000 141.626
63.35000 136.130
63.52000 133.072
63.69000 135.292
63.86000 135.051
64.03000 142.782
64.20000 143.356
64.37000 154.554
64.54000 171.447
64.71000 160.209
64.88000 182.462
65.05000 197.260
65.22000 224.423
65.39000 268.485
65.56000 377.659
65.73000 1168.073
65.90000 2040.233
66.07000 504.069
66.24000 413.165
66.41000 646.880
66.58000 411.206
66.75000 365.771
66.92000 371.908
67.09000 375.534
67.26000 394.363
67.43000 421.617
67.60000 449.584
67.77000 492.808
67.94000 502.034
68.11000 524.779
68.28000 588.919
68.45000 689.957
68.62000 964.587
68.79000 1737.249
68.96000 11020.711
69.13000 48651.301
69.30000 26007.352
69.47000 6017.216
69.64000 986.842
69.81000 653.445
69.98000 533.993
70.00000 534.302

File: BTO_Mapping_Theta2Theta_09-10-2025_001_09_36-542_16-269.xy
20.00000 485.587
20.17000 482.541
20.34000 494.768
20.51000 487.751
20.68000 477.501
20.85000 487.743
21.02000 468.344
21.19000 477.757
21.36000 451.535
21.53000 453.511
21.70000 488.347
21.87000 500.793
22.04000 558.828
22.21000 567.348
22.38000 520.702
22.55000 461.915
22.72000 461.036
22.89000 451.520
23.06000 466.653
23.23000 436.376
23.40000 452.413
23.57000 448.455
23.74000 452.705
23.91000 452.526
24.08000 461.110
24.25000 438.013
24.42000 408.944
24.59000 422.080
24.76000 425.097
24.93000 413.085
25.10000 398.474
25.27000 406.136
25.44000 411.822
25.61000 409.729
25.78000 403.854
25.95000 396.937
26.12000 405.043
26.29000 405.878
26.46000 393.694
26.63000 398.671
26.80000 369.277
26.97000 370.144
27.14000 381.681
27.31000 377.672
27.48000 362.865
27.65000 371.468
27.82000 379.792
27.99000 392.137
28.16000 362.323
28.33000 367.460
28.50000 358.676
28.67000 350.164
28.84000 384.250
29.01000 363.765
29.18000 349.997
29.35000 347.629
29.52000 351.603
29.69000 353.727
29.86000 383.551
30.03000 398.372
30.20000 376.952
30.37000 377.905
30.54000 381.367
30.71000 371.976
30.88000 415.395
31.05000 457.642
31.22000 794.004
31.39000 1541.000
31.56000 1351.576
31.73000 655.332
31.90000 423.178
32.07000 356.493
32.24000 334.207
32.41000 351.772
32.58000 324.348
32.75000 319.954
32.92000 309.221
33.09000 306.628
33.26000 302.082
33.43000 291.280
33.60000 285.860
33.77000 297.663
33.94000 299.260
34.11000 291.091
34.28000 294.678
34.45000 287.242
34.62000 282.252
34.79000 287.506
34.96000 273.623
35.13000 267.205
35.30000 266.774
35.47000 274.886
35.64000 269.161
35.81000 273.106
35.98000 269.658
36.15000 261.300
36.32000 266.713
36.49000 262.122
36.66000 258.933
36.83000 275.492
37.00000 280.111
37.17000 261.151
37.34000 258.449
37.51000 258.732
37.68000 263.311
37.85000 250.939
38.02000 271.544
38.19000 263.831
38.36000 259.207
38.53000 341.652
38.70000 762.572
38.87000 824.175
39.04000 393.950
39.21000 265.914
39.38000 228.908
39.55000 236.962
39.72000 221.921
39.89000 234.524
40.06000 231.159
40.23000 218.767
40.40000 227.653
40.57000 225.637
40.74000 222.194
40.91000 218.662
41.08000 206.700
41.25000 218.145
41.42000 203.298
41.59000 207.312
41.76000 206.187
41.93000 212.685
42.10000 215.757
42.27000 205.432
42.44000 202.169
42.61000 198.592
42.78000 196.918
42.95000 207.573
43.12000 198.495
43.29000 203.747
43.46000 207.381
43.63000 191.678
43.80000 183.906
43.97000 188.817
44.14000 193.542
44.31000 184.193
44.48000 196.993
44.65000 203.644
44.82000 218.354
44.99000 247.854
45.16000 266.003
45.33000 252.385
45.50000 250.924
45.67000 225.721
45.84000 211.823
46.01000 196.097
46.18000 175.972
46.35000 187.107
46.52000 176.090
46.69000 182.729
46.86000 172.527
47.03000 173.768
47.20000 171.170
47.37000 174.730
47.54000 159.681
47.71000 158.411
47.88000 169.258
48.05000 165.207
48.22000 153.587
48.39000 165.892
48.56000 158.813
48.73000 155.559
48.90000 152.308
49.07000 150.139
49.24000 155.396
49.41000 152.386
49.58000 164.926
49.75000 160.121
49.92000 143.504
50.09000 157.331
50.26000 150.928
50.43000 157.276
50.60000 164.989
50.77000 191.979
50.94000 170.966
51.11000 170.700
51.28000 161.399
51.45000 153.062
51.62000 156.941
51.79000 144.855
51.96000 144.613
52.13000 142.760
52.30000 143.576
52.47000 153.773
52.64000 137.867
52.81000 140.701
52.98000 132.586
53.15000 136.498
53.32000 142.992
53.49000 154.640
53.66000 149.230
53.83000 148.863
54.00000 143.619
54.17000 138.469
54.34000 136.190
54.51000 136.282
54.68000 143.395
54.85000 140.354
55.02000 143.025
55.19000 136.793
55.36000 146.853
55.53000 158.168
55.70000 212.962
55.87000 379.316
56.04000 553.355
56.21000 477.439
56.38000 264.313
56.55000 184.451
56.72000 154.378
56.89000 134.287
57.06000 124.929
57.23000 129.782
57.40000 128.055
57.57000 133.274
57.74000 131.372
57.91000 131.554
58.08000 126.254
58.25000 119.812
58.42000 113.818
58.59000 134.564
58.76000 118.589
58.93000 123.957
59.10000 116.426
59.27000 111.972
59.44000 121.170
59.61000 120.555
59.78000 127.049
59.95000 121.256
60.12000 116.098
60.29000 123.237
60.46000 118.015
60.63000 123.264
60.80000 117.885
60.97000 126.366
61.14000 125.129
61.31000 124.249
61.48000 120.809
61.65000 279.096
61.82000 204.047
61.99000 129.541
62.16000 137.309
62.33000 122.916
62.50000 131.939
62.67000 140.483
62.84000 128.206
63.01000 139.924
63.18000 146.232
63.35000 140.615
63.52000 137.973
63.69000 135.326
63.86000 145.736
64.03000 150.819
64.20000 151.047
64.37000 156.880
64.54000 156.802
64.71000 176.248
64.88000 165.296
65.05000 196.813
65.22000 204.924
65.39000 241.216
65.56000 362.687
65.73000 1069.063
65.90000 1924.056
66.07000 515.018
66.24000 407.347
66.41000 639.956
66.58000 404.608
66.75000 349.748
66.92000 370.057
67.09000 380.214
67.26000 391.650
67.43000 402.720
67.60000 457.833
67.77000 468.762
67.94000 491.698
68.11000 530.363
68.28000 596.958
68.45000 678.878
68.62000 955.857
68.79000 1688.269
68.96000 10006.896
69.13000 46467.879
69.30000 25486.611
69.47000 6255.994
69.64000 979.110
69.81000 649.941
69.98000 516.307
70.00000 505.281