Folder: Master-Thesis/XRD/XRD/09-10-2025 Dep 8/XY Data (part 2)

File: BTO_Mapping_Theta2Theta_09-10-2025_001_10_6-691_7-431.xy
20.00000 484.686
20.17000 473.674
20.34000 475.467
20.51000 480.528
20.68000 466.891
20.85000 482.281
21.02000 473.011
21.19000 466.357
21.36000 510.596
21.53000 483.531
21.70000 463.610
21.87000 517.887
22.04000 607.394
22.21000 605.731
22.38000 532.938
22.55000 476.907
22.72000 446.184
22.89000 452.489
23.06000 440.375
23.23000 445.760
23.40000 434.795
23.57000 444.393
23.74000 414.588
23.91000 435.398
24.08000 421.170
24.25000 416.808
24.42000 418.346
24.59000 411.757
24.76000 410.808
24.93000 420.291
25.10000 411.005
25.27000 403.832
25.44000 399.260
25.61000 400.423
25.78000 417.357
25.95000 422.499
26.12000 390.454
26.29000 376.285
26.46000 362.872
26.63000 383.986
26.80000 388.677
26.97000 385.286
27.14000 377.996
27.31000 385.147
27.48000 367.206
27.65000 389.631
27.82000 358.666
27.99000 369.869
28.16000 385.013
28.33000 370.576
28.50000 381.183
28.67000 371.859
28.84000 371.583
29.01000 373.053
29.18000 377.894
29.35000 371.757
29.52000 364.295
29.69000 375.883
29.86000 404.601
30.03000 453.495
30.20000 443.118
30.37000 406.914
30.54000 408.906
30.71000 420.502
30.88000 448.928
31.05000 578.325
31.22000 1427.923
31.39000 3084.187
31.56000 1978.307
31.73000 719.534
31.90000 449.159
32.07000 388.043
32.24000 354.356
32.41000 344.774
32.58000 342.496
32.75000 324.976
32.92000 328.170
33.09000 300.538
33.26000 301.805
33.43000 294.898
33.60000 287.814
33.77000 290.849
33.94000 297.848
34.11000 293.479
34.28000 287.951
34.45000 286.210
34.62000 274.970
34.79000 275.725
34.96000 260.234
35.13000 275.982
35.30000 280.865
35.47000 268.530
35.64000 270.255
35.81000 265.893
35.98000 270.954
36.15000 272.276
36.32000 254.389
36.49000 252.153
36.66000 256.107
36.83000 263.681
37.00000 279.942
37.17000 285.788
37.34000 267.282
37.51000 265.345
37.68000 254.401
37.85000 260.453
38.02000 254.349
38.19000 279.988
38.36000 308.549
38.53000 497.031
38.70000 1008.235
38.87000 790.211
39.04000 342.233
39.21000 263.509
39.38000 261.396
39.55000 247.702
39.72000 239.529
39.89000 226.977
40.06000 243.076
40.23000 228.491
40.40000 207.638
40.57000 221.756
40.74000 227.883
40.91000 199.666
41.08000 218.654
41.25000 218.464
41.42000 220.187
41.59000 208.181
41.76000 207.174
41.93000 212.977
42.10000 213.463
42.27000 211.345
42.44000 203.612
42.61000 192.529
42.78000 202.415
42.95000 203.815
43.12000 201.243
43.29000 196.928
43.46000 195.988
43.63000 198.926
43.80000 201.222
43.97000 197.429
44.14000 196.416
44.31000 195.730
44.48000 197.506
44.65000 200.654
44.82000 227.692
44.99000 269.327
45.16000 307.083
45.33000 279.164
45.50000 266.094
45.67000 223.281
45.84000 211.712
46.01000 201.550
46.18000 188.209
46.35000 180.273
46.52000 177.083
46.69000 164.612
46.86000 169.367
47.03000 163.478
47.20000 163.605
47.37000 164.313
47.54000 168.907
47.71000 166.340
47.88000 171.047
48.05000 171.889
48.22000 155.969
48.39000 161.786
48.56000 157.906
48.73000 164.036
48.90000 151.286
49.07000 153.342
49.24000 150.456
49.41000 150.648
49.58000 144.778
49.75000 146.883
49.92000 162.526
50.09000 166.892
50.26000 158.623
50.43000 176.881
50.60000 201.659
50.77000 238.364
50.94000 191.966
51.11000 179.494
51.28000 153.869
51.45000 146.182
51.62000 143.400
51.79000 142.363
51.96000 148.781
52.13000 136.028
52.30000 129.162
52.47000 153.175
52.64000 134.587
52.81000 135.887
52.98000 136.335
53.15000 146.746
53.32000 157.148
53.49000 157.168
53.66000 153.276
53.83000 139.468
54.00000 147.258
54.17000 139.954
54.34000 134.226
54.51000 136.039
54.68000 144.302
54.85000 137.179
55.02000 142.311
55.19000 143.179
55.36000 149.119
55.53000 165.406
55.70000 239.196
55.87000 430.065
56.04000 550.640
56.21000 370.316
56.38000 229.134
56.55000 169.031
56.72000 142.860
56.89000 148.328
57.06000 132.554
57.23000 130.373
57.40000 138.092
57.57000 130.114
57.74000 135.136
57.91000 125.575
58.08000 133.929
58.25000 118.454
58.42000 132.889
58.59000 118.491
58.76000 123.391
58.93000 110.168
59.10000 120.508
59.27000 121.937
59.44000 122.496
59.61000 120.131
59.78000 121.042
59.95000 112.216
60.12000 112.352
60.29000 121.807
60.46000 116.089
60.63000 116.426
60.80000 118.997
60.97000 122.837
61.14000 129.201
61.31000 121.910
61.48000 142.547
61.65000 327.471
61.82000 211.484
61.99000 128.754
62.16000 127.138
62.33000 127.930
62.50000 148.814
62.67000 137.412
62.84000 122.577
63.01000 136.750
63.18000 150.883
63.35000 133.551
63.52000 139.671
63.69000 152.654
63.86000 144.885
64.03000 157.933
64.20000 147.448
64.37000 163.320
64.54000 161.382
64.71000 158.072
64.88000 179.170
65.05000 194.061
65.22000 236.920
65.39000 323.101
65.56000 484.206
65.73000 1346.336
65.90000 2376.825
66.07000 591.687
66.24000 441.338
66.41000 731.590
66.58000 439.282
66.75000 380.041
66.92000 386.294
67.09000 415.995
67.26000 417.022
67.43000 465.382
67.60000 454.994
67.77000 493.286
67.94000 525.584
68.11000 567.122
68.28000 626.088
68.45000 719.319
68.62000 1044.515
68.79000 1953.323
68.96000 13279.424
69.13000 56459.004
69.30000 29942.568
69.47000 6690.311
69.64000 1016.961
69.81000 664.894
69.98000 559.750
70.00000 546.709

File: BTO_Mapping_Theta2Theta_09-10-2025_001_11_13-383_14-863.xy
20.00000 493.529
20.17000 477.931
20.34000 497.854
20.51000 483.394
20.68000 480.242
20.85000 468.190
21.02000 469.973
21.19000 465.668
21.36000 456.266
21.53000 494.906
21.70000 481.118
21.87000 498.019
22.04000 559.940
22.21000 614.364
22.38000 524.539
22.55000 473.292
22.72000 455.453
22.89000 470.308
23.06000 465.220
23.23000 443.208
23.40000 433.402
23.57000 421.453
23.74000 426.285
23.91000 422.499
24.08000 414.829
24.25000 446.681
24.42000 420.321
24.59000 434.218
24.76000 404.064
24.93000 419.400
25.10000 410.031
25.27000 410.878
25.44000 390.594
25.61000 415.452
25.78000 391.257
25.95000 392.195
26.12000 387.224
26.29000 396.270
26.46000 402.197
26.63000 387.902
26.80000 382.141
26.97000 383.972
27.14000 367.507
27.31000 383.323
27.48000 373.213
27.65000 370.428
27.82000 371.453
27.99000 364.975
28.16000 379.990
28.33000 383.622
28.50000 362.560
28.67000 357.234
28.84000 359.815
29.01000 358.293
29.18000 365.622
29.35000 364.775
29.52000 355.999
29.69000 378.324
29.86000 383.729
30.03000 431.480
30.20000 426.033
30.37000 386.792
30.54000 417.210
30.71000 400.725
30.88000 428.354
31.05000 541.016
31.22000 1199.365
31.39000 2667.314
31.56000 1898.941
31.73000 738.134
31.90000 412.406
32.07000 371.311
32.24000 355.486
32.41000 330.661
32.58000 328.984
32.75000 322.671
32.92000 317.488
33.09000 311.075
33.26000 298.138
33.43000 291.001
33.60000 299.492
33.77000 283.119
33.94000 286.792
34.11000 286.742
34.28000 292.122
34.45000 295.960
34.62000 271.701
34.79000 284.521
34.96000 267.176
35.13000 271.177
35.30000 273.563
35.47000 281.680
35.64000 268.047
35.81000 275.747
35.98000 270.715
36.15000 261.461
36.32000 263.667
36.49000 259.441
36.66000 257.939
36.83000 263.189
37.00000 278.906
37.17000 280.892
37.34000 284.406
37.51000 262.724
37.68000 262.477
37.85000 251.141
38.02000 253.028
38.19000 269.935
38.36000 297.773
38.53000 445.832
38.70000 916.779
38.87000 818.608
39.04000 357.704
39.21000 275.026
39.38000 242.771
39.55000 243.191
39.72000 231.576
39.89000 240.178
40.06000 230.299
40.23000 225.214
40.40000 233.173
40.57000 212.141
40.74000 232.053
40.91000 210.884
41.08000 215.870
41.25000 221.118
41.42000 214.455
41.59000 201.376
41.76000 210.168
41.93000 206.887
42.10000 205.068
42.27000 196.615
42.44000 218.816
42.61000 200.368
42.78000 205.201
42.95000 202.465
43.12000 200.172
43.29000 208.996
43.46000 196.616
43.63000 196.146
43.80000 204.147
43.97000 198.834
44.14000 191.471
44.31000 197.468
44.48000 194.699
44.65000 213.871
44.82000 219.638
44.99000 239.164
45.16000 292.086
45.33000 285.001
45.50000 260.217
45.67000 226.559
45.84000 221.705
46.01000 202.667
46.18000 188.485
46.35000 182.263
46.52000 158.542
46.69000 186.699
46.86000 180.002
47.03000 160.023
47.20000 174.517
47.37000 161.543
47.54000 171.339
47.71000 165.559
47.88000 161.061
48.05000 165.945
48.22000 154.435
48.39000 153.551
48.56000 163.345
48.73000 152.820
48.90000 150.811
49.07000 158.266
49.24000 163.230
49.41000 161.100
49.58000 155.116
49.75000 146.959
49.92000 159.072
50.09000 148.518
50.26000 155.088
50.43000 162.457
50.60000 193.256
50.77000 231.010
50.94000 209.297
51.11000 166.641
51.28000 164.157
51.45000 154.278
51.62000 152.427
51.79000 148.109
51.96000 144.963
52.13000 139.159
52.30000 139.046
52.47000 140.277
52.64000 146.561
52.81000 145.994
52.98000 144.784
53.15000 138.554
53.32000 146.061
53.49000 154.850
53.66000 150.687
53.83000 133.357
54.00000 139.595
54.17000 147.365
54.34000 138.759
54.51000 134.720
54.68000 139.268
54.85000 140.864
55.02000 145.326
55.19000 143.960
55.36000 150.214
55.53000 172.398
55.70000 209.621
55.87000 402.161
56.04000 552.204
56.21000 418.678
56.38000 237.368
56.55000 167.445
56.72000 154.159
56.89000 143.768
57.06000 136.184
57.23000 130.914
57.40000 124.893
57.57000 124.263
57.74000 124.953
57.91000 118.748
58.08000 124.559
58.25000 127.945
58.42000 119.377
58.59000 137.729
58.76000 117.335
58.93000 128.262
59.10000 122.686
59.27000 119.619
59.44000 116.471
59.61000 118.629
59.78000 117.778
59.95000 131.724
60.12000 125.473
60.29000 106.103
60.46000 120.333
60.63000 124.282
60.80000 121.896
60.97000 127.344
61.14000 117.967
61.31000 124.981
61.48000 130.294
61.65000 319.513
61.82000 184.961
61.99000 133.717
62.16000 133.436
62.33000 127.237
62.50000 141.962
62.67000 133.218
62.84000 140.936
63.01000 134.420
63.18000 127.281
63.35000 124.594
63.52000 142.193
63.69000 137.525
63.86000 143.128
64.03000 155.770
64.20000 148.164
64.37000 159.132
64.54000 154.037
64.71000 162.270
64.88000 175.005
65.05000 202.482
65.22000 227.254
65.39000 306.246
65.56000 454.832
65.73000 1284.818
65.90000 2250.749
66.07000 566.132
66.24000 432.061
66.41000 710.013
66.58000 450.490
66.75000 361.044
66.92000 382.522
67.09000 416.171
67.26000 413.800
67.43000 462.657
67.60000 468.795
67.77000 495.332
67.94000 514.913
68.11000 565.717
68.28000 595.566
68.45000 699.867
68.62000 1037.240
68.79000 1900.080
68.96000 12171.329
69.13000 53495.211
69.30000 28568.828
69.47000 6553.750
69.64000 995.671
69.81000 682.601
69.98000 521.535
70.00000 505.382

File: BTO_Mapping_Theta2Theta_09-10-2025_001_12_20-074_22-294.xy
20.00000 497.444
20.17000 490.280
20.34000 465.777
20.51000 481.712
20.68000 474.328
20.85000 481.869
21.02000 483.576
21.19000 465.047
21.36000 462.784
21.53000 482.674
21.70000 485.310
21.87000 505.179
22.04000 556.780
22.21000 587.239
22.38000 525.787
22.55000 477.846
22.72000 442.100
22.89000 447.962
23.06000 441.455
23.23000 431.146
23.40000 443.676
23.57000 438.562
23.74000 440.007
23.91000 462.615
24.08000 471.956
24.25000 429.920
24.42000 427.558
24.59000 412.773
24.76000 418.849
24.93000 405.226
25.10000 419.633
25.27000 400.433
25.44000 409.755
25.61000 413.595
25.78000 402.130
25.95000 399.992
26.12000 392.622
26.29000 386.863
26.46000 379.735
26.63000 387.680
26.80000 377.702
26.97000 385.968
27.14000 378.029
27.31000 375.269
27.48000 388.518
27.65000 364.786
27.82000 385.296
27.99000 377.107
28.16000 360.370
28.33000 369.531
28.50000 357.588
28.67000 362.893
28.84000 353.435
29.01000 361.484
29.18000 356.902
29.35000 358.150
29.52000 354.604
29.69000 352.730
29.86000 374.739
30.03000 399.994
30.20000 409.082
30.37000 401.509
30.54000 362.435
30.71000 391.282
30.88000 393.962
31.05000 483.253
31.22000 945.147
31.39000 2000.735
31.56000 1659.407
31.73000 738.660
31.90000 433.149
32.07000 345.622
32.24000 348.571
32.41000 332.194
32.58000 325.019
32.75000 326.265
32.92000 307.985
33.09000 313.985
33.26000 327.661
33.43000 285.584
33.60000 299.855
33.77000 280.170
33.94000 300.498
34.11000 314.043
34.28000 283.281
34.45000 278.318
34.62000 304.272
34.79000 270.752
34.96000 281.125
35.13000 279.528
35.30000 278.652
35.47000 262.335
35.64000 266.420
35.81000 256.505
35.98000 250.572
36.15000 251.764
36.32000 276.042
36.49000 261.090
36.66000 260.694
36.83000 258.505
37.00000 271.989
37.17000 273.241
37.34000 256.859
37.51000 260.014
37.68000 252.440
37.85000 249.441
38.02000 264.900
38.19000 266.417
38.36000 275.172
38.53000 417.862
38.70000 879.938
38.87000 855.772
39.04000 374.076
39.21000 282.374
39.38000 264.256
39.55000 235.834
39.72000 226.639
39.89000 224.985
40.06000 240.285
40.23000 222.618
40.40000 234.923
40.57000 226.611
40.74000 210.713
40.91000 214.142
41.08000 221.177
41.25000 215.096
41.42000 217.843
41.59000 220.496
41.76000 207.311
41.93000 216.113
42.10000 210.314
42.27000 191.505
42.44000 198.537
42.61000 196.765
42.78000 202.789
42.95000 204.366
43.12000 202.029
43.29000 201.926
43.46000 209.662
43.63000 185.589
43.80000 202.415
43.97000 196.363
44.14000 201.040
44.31000 202.850
44.48000 201.267
44.65000 207.057
44.82000 214.394
44.99000 238.134
45.16000 264.840
45.33000 266.428
45.50000 245.333
45.67000 224.359
45.84000 209.951
46.01000 179.445
46.18000 180.524
46.35000 179.826
46.52000 184.905
46.69000 170.638
46.86000 165.402
47.03000 165.098
47.20000 173.114
47.37000 170.290
47.54000 165.767
47.71000 162.481
47.88000 166.960
48.05000 176.817
48.22000 174.598
48.39000 149.900
48.56000 163.116
48.73000 158.440
48.90000 164.125
49.07000 155.688
49.24000 165.011
49.41000 149.673
49.58000 158.887
49.75000 160.549
49.92000 152.343
50.09000 168.187
50.26000 160.142
50.43000 160.222
50.60000 180.272
50.77000 211.204
50.94000 207.010
51.11000 169.046
51.28000 168.415
51.45000 151.075
51.62000 157.251
51.79000 148.468
51.96000 132.095
52.13000 139.169
52.30000 146.854
52.47000 135.358
52.64000 138.580
52.81000 150.352
52.98000 132.547
53.15000 149.101
53.32000 140.748
53.49000 166.453
53.66000 144.183
53.83000 144.139
54.00000 138.940
54.17000 138.366
54.34000 139.980
54.51000 133.231
54.68000 131.803
54.85000 138.673
55.02000 131.687
55.19000 147.695
55.36000 144.252
55.53000 170.434
55.70000 204.037
55.87000 390.371
56.04000 575.789
56.21000 454.199
56.38000 252.527
56.55000 178.195
56.72000 140.080
56.89000 143.897
57.06000 133.674
57.23000 127.081
57.40000 124.834
57.57000 123.945
57.74000 122.074
57.91000 119.404
58.08000 125.272
58.25000 128.484
58.42000 124.511
58.59000 114.597
58.76000 111.239
58.93000 119.160
59.10000 125.925
59.27000 121.984
59.44000 105.415
59.61000 124.303
59.78000 122.795
59.95000 114.930
60.12000 118.375
60.29000 119.802
60.46000 120.403
60.63000 118.913
60.80000 117.639
60.97000 120.854
61.14000 123.170
61.31000 120.954
61.48000 147.944
61.65000 299.371
61.82000 194.669
61.99000 138.469
62.16000 128.403
62.33000 122.151
62.50000 122.606
62.67000 122.740
62.84000 129.284
63.01000 135.611
63.18000 133.469
63.35000 136.340
63.52000 135.138
63.69000 146.667
63.86000 149.889
64.03000 143.985
64.20000 152.343
64.37000 159.306
64.54000 151.564
64.71000 168.279
64.88000 184.760
65.05000 196.303
65.22000 216.664
65.39000 264.761
65.56000 377.420
65.73000 1193.866
65.90000 2163.847
66.07000 543.581
66.24000 418.729
66.41000 671.749
66.58000 432.483
66.75000 369.468
66.92000 384.301
67.09000 402.523
67.26000 417.524
67.43000 425.074
67.60000 486.246
67.77000 486.486
67.94000 528.372
68.11000 548.588
68.28000 624.456
68.45000 689.722
68.62000 1001.326
68.79000 1824.521
68.96000 11507.115
69.13000 50837.703
69.30000 27341.904
69.47000 6376.675
69.64000 1028.289
69.81000 655.901
69.98000 535.706
70.00000 533.666

File: BTO_Mapping_Theta2Theta_09-10-2025_001_15_6-180_19-021.xy
20.00000 485.136
20.17000 494.929
20.34000 478.184
20.51000 468.368
20.68000 473.590
20.85000 475.234
21.02000 468.502
21.19000 477.896
21.36000 465.678
21.53000 486.484
21.70000 464.904
21.87000 521.817
22.04000 580.158
22.21000 584.019
22.38000 518.140
22.55000 475.768
22.72000 456.956
22.89000 426.699
23.06000 446.560
23.23000 435.824
23.40000 449.008
23.57000 434.067
23.74000 421.946
23.91000 417.345
24.08000 425.017
24.25000 411.664
24.42000 430.376
24.59000 427.373
24.76000 406.196
24.93000 402.750
25.10000 405.605
25.27000 409.327
25.44000 394.052
25.61000 395.139
25.78000 385.799
25.95000 384.208
26.12000 400.318
26.29000 394.783
26.46000 399.198
26.63000 397.083
26.80000 385.071
26.97000 382.382
27.14000 374.146
27.31000 388.488
27.48000 381.393
27.65000 381.050
27.82000 372.887
27.99000 372.953
28.16000 387.038
28.33000 391.080
28.50000 364.280
28.67000 366.392
28.84000 359.871
29.01000 370.541
29.18000 369.911
29.35000 358.619
29.52000 370.642
29.69000 365.529
29.86000 383.244
30.03000 432.236
30.20000 450.961
30.37000 404.164
30.54000 376.779
30.71000 412.363
30.88000 447.260
31.05000 537.990
31.22000 1265.666
31.39000 2861.032
31.56000 1965.599
31.73000 750.634
31.90000 463.940
32.07000 388.391
32.24000 349.111
32.41000 323.338
32.58000 338.984
32.75000 312.592
32.92000 320.631
33.09000 312.101
33.26000 302.432
33.43000 293.164
33.60000 306.209
33.77000 285.522
33.94000 305.641
34.11000 286.750
34.28000 293.915
34.45000 293.077
34.62000 281.961
34.79000 282.109
34.96000 283.524
35.13000 281.614
35.30000 283.588
35.47000 273.134
35.64000 270.898
35.81000 266.374
35.98000 270.320
36.15000 259.147
36.32000 270.906
36.49000 256.526
36.66000 251.998
36.83000 264.815
37.00000 266.369
37.17000 283.387
37.34000 264.000
37.51000 259.095
37.68000 275.457
37.85000 237.119
38.02000 267.277
38.19000 271.591
38.36000 302.270
38.53000 454.762
38.70000 963.635
38.87000 843.464
39.04000 374.062
39.21000 266.406
39.38000 229.156
39.55000 236.094
39.72000 225.205
39.89000 236.672
40.06000 226.268
40.23000 223.241
40.40000 223.146
40.57000 214.744
40.74000 218.898
40.91000 226.787
41.08000 219.103
41.25000 223.229
41.42000 208.218
41.59000 202.661
41.76000 207.969
41.93000 195.655
42.10000 200.712
42.27000 206.210
42.44000 203.048
42.61000 204.409
42.78000 207.623
42.95000 207.978
43.12000 205.264
43.29000 203.706
43.46000 194.031
43.63000 199.885
43.80000 203.535
43.97000 206.672
44.14000 193.101
44.31000 192.876
44.48000 200.508
44.65000 203.979
44.82000 216.708
44.99000 252.038
45.16000 301.494
45.33000 280.921
45.50000 248.446
45.67000 225.215
45.84000 212.777
46.01000 192.819
46.18000 182.595
46.35000 169.660
46.52000 169.000
46.69000 177.098
46.86000 156.266
47.03000 171.672
47.20000 170.966
47.37000 165.633
47.54000 170.298
47.71000 160.306
47.88000 165.461
48.05000 161.504
48.22000 154.656
48.39000 158.184
48.56000 166.108
48.73000 157.220
48.90000 168.201
49.07000 161.972
49.24000 155.523
49.41000 150.038
49.58000 153.082
49.75000 151.964
49.92000 150.832
50.09000 164.959
50.26000 157.532
50.43000 168.193
50.60000 199.996
50.77000 226.618
50.94000 204.256
51.11000 182.187
51.28000 173.210
51.45000 147.039
51.62000 140.617
51.79000 145.584
51.96000 143.060
52.13000 146.053
52.30000 137.694
52.47000 148.051
52.64000 141.311
52.81000 139.488
52.98000 133.629
53.15000 139.417
53.32000 148.120
53.49000 152.990
53.66000 137.879
53.83000 147.512
54.00000 143.250
54.17000 136.310
54.34000 131.843
54.51000 141.521
54.68000 145.895
54.85000 136.097
55.02000 142.424
55.19000 139.392
55.36000 147.921
55.53000 176.043
55.70000 243.279
55.87000 401.603
56.04000 563.513
56.21000 395.143
56.38000 245.226
56.55000 171.575
56.72000 151.039
56.89000 139.432
57.06000 138.987
57.23000 130.559
57.40000 125.393
57.57000 127.771
57.74000 123.923
57.91000 127.600
58.08000 128.856
58.25000 131.395
58.42000 119.594
58.59000 118.923
58.76000 119.839
58.93000 121.828
59.10000 111.379
59.27000 126.401
59.44000 119.416
59.61000 116.478
59.78000 127.112
59.95000 119.605
60.12000 118.295
60.29000 122.595
60.46000 112.704
60.63000 117.774
60.80000 113.818
60.97000 119.838
61.14000 122.976
61.31000 133.746
61.48000 139.512
61.65000 321.081
61.82000 199.250
61.99000 130.732
62.16000 135.389
62.33000 120.857
62.50000 132.096
62.67000 135.443
62.84000 124.200
63.01000 133.169
63.18000 122.946
63.35000 127.232
63.52000 141.950
63.69000 147.883
63.86000 139.231
64.03000 146.132
64.20000 150.152
64.37000 167.112
64.54000 166.168
64.71000 169.909
64.88000 205.832
65.05000 191.210
65.22000 236.918
65.39000 306.380
65.56000 479.397
65.73000 1304.458
65.90000 2318.770
66.07000 587.325
66.24000 453.932
66.41000 736.216
66.58000 467.776
66.75000 381.752
66.92000 394.184
67.09000 422.292
67.26000 417.017
67.43000 447.659
67.60000 477.810
67.77000 486.377
67.94000 535.579
68.11000 580.242
68.28000 629.654
68.45000 722.069
68.62000 1045.121
68.79000 1971.650
68.96000 12125.319
69.13000 55381.418
69.30000 29754.420
69.47000 7006.760
69.64000 1044.156
69.81000 681.864
69.98000 534.917
70.00000 549.611

File: BTO_Mapping_Theta2Theta_09-10-2025_001_16_9-271_28-532.xy
20.00000 483.959
20.17000 476.426
20.34000 459.234
20.51000 466.240
20.68000 484.276
20.85000 480.035
21.02000 464.312
21.19000 470.651
21.36000 467.794
21.53000 482.112
21.70000 482.278
21.87000 520.929
22.04000 583.692
22.21000 585.662
22.38000 540.323
22.55000 474.514
22.72000 462.985
22.89000 424.036
23.06000 425.934
23.23000 436.400
23.40000 437.184
23.57000 437.833
23.74000 429.239
23.91000 452.487
24.08000 445.952
24.25000 426.417
24.42000 426.650
24.59000 407.912
24.76000 413.090
24.93000 404.797
25.10000 401.708
25.27000 411.961
25.44000 384.542
25.61000 398.865
25.78000 386.674
25.95000 409.395
26.12000 390.874
26.29000 389.650
26.46000 391.094
26.63000 376.962
26.80000 389.088
26.97000 390.768
27.14000 373.418
27.31000 372.916
27.48000 371.719
27.65000 377.045
27.82000 365.834
27.99000 380.026
28.16000 366.607
28.33000 386.741
28.50000 377.567
28.67000 366.123
28.84000 360.797
29.01000 353.598
29.18000 359.343
29.35000 352.263
29.52000 353.083
29.69000 357.486
29.86000 380.301
30.03000 421.218
30.20000 407.047
30.37000 392.071
30.54000 387.196
30.71000 386.335
30.88000 431.724
31.05000 506.252
31.22000 1003.444
31.39000 2308.981
31.56000 1831.921
31.73000 753.169
31.90000 463.871
32.07000 387.335
32.24000 353.618
32.41000 349.793
32.58000 338.761
32.75000 326.871
32.92000 303.855
33.09000 319.771
33.26000 313.184
33.43000 304.550
33.60000 289.179
33.77000 300.603
33.94000 289.450
34.11000 281.297
34.28000 296.109
34.45000 306.391
34.62000 276.315
34.79000 273.027
34.96000 282.905
35.13000 268.749
35.30000 274.715
35.47000 263.246
35.64000 265.633
35.81000 275.295
35.98000 257.996
36.15000 246.369
36.32000 263.211
36.49000 260.120
36.66000 256.798
36.83000 258.145
37.00000 274.710
37.17000 281.543
37.34000 264.148
37.51000 272.055
37.68000 270.930
37.85000 254.495
38.02000 256.286
38.19000 269.157
38.36000 276.439
38.53000 423.675
38.70000 945.495
38.87000 923.757
39.04000 388.411
39.21000 265.520
39.38000 243.636
39.55000 243.212
39.72000 231.192
39.89000 227.448
40.06000 223.096
40.23000 221.112
40.40000 216.802
40.57000 223.100
40.74000 222.450
40.91000 224.825
41.08000 216.954
41.25000 218.352
41.42000 206.714
41.59000 214.353
41.76000 205.496
41.93000 212.365
42.10000 202.073
42.27000 195.908
42.44000 240.102
42.61000 198.462
42.78000 197.043
42.95000 201.219
43.12000 205.886
43.29000 183.247
43.46000 206.912
43.63000 187.822
43.80000 188.277
43.97000 190.661
44.14000 194.360
44.31000 196.031
44.48000 198.969
44.65000 199.910
44.82000 212.944
44.99000 239.799
45.16000 286.222
45.33000 279.405
45.50000 241.005
45.67000 242.647
45.84000 206.140
46.01000 210.944
46.18000 191.425
46.35000 189.486
46.52000 172.606
46.69000 172.834
46.86000 174.631
47.03000 161.703
47.20000 169.138
47.37000 157.780
47.54000 165.786
47.71000 163.041
47.88000 169.325
48.05000 156.468
48.22000 162.750
48.39000 156.282
48.56000 162.813
48.73000 152.003
48.90000 155.328
49.07000 168.768
49.24000 153.950
49.41000 159.980
49.58000 157.559
49.75000 176.645
49.92000 152.754
50.09000 148.126
50.26000 165.650
50.43000 165.036
50.60000 185.574
50.77000 220.430
50.94000 200.848
51.11000 175.178
51.28000 159.535
51.45000 159.327
51.62000 139.715
51.79000 142.450
51.96000 147.980
52.13000 139.276
52.30000 135.692
52.47000 144.400
52.64000 151.155
52.81000 139.633
52.98000 148.844
53.15000 147.947
53.32000 149.293
53.49000 143.988
53.66000 144.349
53.83000 141.526
54.00000 143.648
54.17000 134.122
54.34000 137.953
54.51000 125.953
54.68000 131.055
54.85000 139.177
55.02000 145.823
55.19000 134.793
55.36000 161.873
55.53000 162.477
55.70000 235.164
55.87000 402.974
56.04000 546.198
56.21000 445.328
56.38000 257.928
56.55000 179.523
56.72000 137.753
56.89000 149.882
57.06000 135.396
57.23000 137.769
57.40000 128.842
57.57000 123.728
57.74000 122.115
57.91000 124.931
58.08000 124.160
58.25000 126.419
58.42000 119.758
58.59000 125.040
58.76000 117.687
58.93000 110.717
59.10000 121.412
59.27000 111.291
59.44000 119.921
59.61000 123.086
59.78000 122.150
59.95000 120.852
60.12000 114.941
60.29000 121.311
60.46000 125.714
60.63000 120.675
60.80000 124.018
60.97000 108.924
61.14000 132.835
61.31000 131.496
61.48000 133.252
61.65000 326.851
61.82000 196.158
61.99000 133.071
62.16000 137.157
62.33000 136.947
62.50000 132.477
62.67000 119.978
62.84000 129.555
63.01000 134.952
63.18000 132.275
63.35000 134.521
63.52000 140.370
63.69000 144.756
63.86000 141.828
64.03000 149.722
64.20000 160.695
64.37000 154.002
64.54000 166.900
64.71000 162.213
64.88000 185.026
65.05000 196.832
65.22000 219.804
65.39000 285.575
65.56000 429.516
65.73000 1282.085
65.90000 2306.004
66.07000 582.933
66.24000 433.221
66.41000 716.270
66.58000 467.660
66.75000 378.098
66.92000 393.015
67.09000 396.942
67.26000 420.046
67.43000 445.626
67.60000 478.668
67.77000 485.012
67.94000 525.687
68.11000 556.927
68.28000 627.634
68.45000 692.200
68.62000 1036.464
68.79000 1899.936
68.96000 11755.381
69.13000 54821.555
69.30000 30038.070
69.47000 7228.467
69.64000 1057.531
69.81000 671.623
69.98000 540.260
70.00000 524.599